altitude,temp,voltage,gyro_x,gyro_y,gyro_z,accel_x,accel_y,accel_z,mag_x,mag_y,mag_z,เpsLat,gpsLng,gpsAlt,gpsSat,state, humidity , lastCmd

-0.37,34.42,8.29,-0.23,0.85,-1.82,-7.98,2.71,6.81,-18.50,59.00,-57.40,0.000000,0.000000,0.00,0,0,61.70,N/A$
-0.48,34.42,8.05,-0.14,1.40,-3.28,-5.12,3.16,8.10,-9.60,56.00,-61.30,0.000000,0.000000,0.00,0,0,61.78,N/A$
13.79,33.41,7.51,0.08,2.29,-0.89,-8.64,1.29,5.36,-6.10,52.90,-71.60,0.000000,0.000000,0.00,0,0,61.78,N/A$
15.41,33.30,7.40,0.22,0.88,-0.20,-8.85,1.14,2.15,-2.50,54.40,-67.50,0.000000,0.000000,0.00,0,0,61.80,N/A$
16.78,33.20,7.38,0.36,0.51,-0.40,-7.94,-1.72,2.13,1.50,56.20,-68.60,0.000000,0.000000,0.00,0,0,61.80,N/A$
22.48,32.78,8.06,0.31,0.27,0.13,-11.72,-1.84,1.92,1.70,53.20,-67.20,0.000000,0.000000,0.00,0,0,61.79,N/A$
15.70,33.29,7.41,0.67,-1.12,-0.62,-7.51,-1.88,1.57,3.90,52.80,-64.50,0.000000,0.000000,0.00,0,0,61.81,N/A$
22.08,32.83,7.41,0.56,-0.30,0.25,-12.38,4.43,3.37,2.80,52.10,-63.60,0.000000,0.000000,0.00,0,0,61.79,N/A$
19.21,33.05,7.41,0.99,0.57,1.00,-10.34,0.68,5.77,2.10,50.90,-60.50,0.000000,0.000000,0.00,0,0,61.79,N/A$
34.61,31.95,8.28,0.33,-0.24,-0.22,-8.14,-0.11,4.71,10.70,55.30,-47.70,0.000000,0.000000,0.00,0,0,61.73,N/A$
-0.64,34.46,8.28,0.61,-0.47,-0.72,-8.04,-1.35,4.24,10.70,54.20,-49.10,0.000000,0.000000,0.00,0,0,61.90,N/A$
-0.41,34.46,8.28,0.29,-0.26,-0.59,-8.21,-0.93,4.72,13.90,54.60,-46.40,0.000000,0.000000,0.00,0,0,62.03,N/A$
-0.63,34.45,8.29,0.08,-0.06,-0.09,-8.79,0.41,4.79,13.20,55.10,-43.50,0.000000,0.000000,0.00,0,0,62.14,N/A$
-0.40,34.45,8.29,0.02,0.31,0.19,-9.15,0.00,4.78,11.90,55.00,-45.80,0.000000,0.000000,0.00,0,0,62.22,N/A$
-0.50,34.44,8.28,-0.15,0.52,0.32,-9.59,0.44,3.58,13.60,55.30,-44.80,0.000000,0.000000,0.00,0,0,62.27,N/A$
-0.53,34.44,8.29,-0.05,0.36,0.18,-10.45,0.91,3.63,9.40,53.20,-42.50,0.000000,0.000000,0.00,0,0,62.30,N/A$
-0.74,34.44,8.29,0.08,0.80,0.50,-9.88,1.45,3.44,7.90,52.60,-41.50,0.000000,0.000000,0.00,0,0,62.33,N/A$
-0.76,34.44,8.28,0.16,0.83,0.78,-9.25,1.96,2.11,4.30,53.50,-40.90,0.000000,0.000000,0.00,0,0,62.36,N/A$
-0.53,34.44,8.29,0.22,0.51,0.51,-8.40,1.58,1.90,3.40,55.00,-42.30,0.000000,0.000000,0.00,0,0,62.38,N/A$
-0.60,34.44,8.28,0.30,0.25,0.47,-8.86,1.54,1.43,1.30,52.50,-43.30,0.000000,0.000000,0.00,0,0,62.50,N/A$
-0.72,34.44,8.29,0.55,0.51,0.75,-9.63,2.53,1.20,-2.90,53.10,-37.00,0.000000,0.000000,0.00,0,0,62.59,N/A$
-0.28,34.44,8.08,0.14,0.11,-0.12,-10.10,3.80,0.07,-13.30,49.10,-45.80,0.000000,0.000000,0.00,0,0,62.60,N/A$
0.00,34.44,7.39,0.39,0.06,0.03,-9.51,4.85,-0.57,-11.90,50.10,-43.60,0.000000,0.000000,0.00,0,0,62.63,N/A$
43.24,31.32,7.41,0.32,0.17,0.04,-9.68,4.03,-0.38,-13.20,50.90,-41.60,0.000000,0.000000,0.00,0,0,62.50,N/A$
43.01,31.36,7.44,0.08,0.02,-0.19,-9.25,3.89,-0.91,-13.30,49.60,-43.80,0.000000,0.000000,0.00,0,0,62.58,N/A$
42.85,31.38,8.07,-0.01,-0.05,-0.37,-9.76,3.78,-0.48,-12.50,50.80,-42.40,0.000000,0.000000,0.00,0,0,62.51,N/A$
42.12,31.39,7.41,-0.04,0.03,-0.40,-9.55,3.60,-0.08,-13.10,51.70,-43.20,0.000000,0.000000,0.00,0,0,62.42,N/A$
42.41,31.43,7.41,-0.01,-0.02,-0.08,-8.03,3.06,-0.80,-13.30,51.50,-43.70,0.000000,0.000000,0.00,0,0,62.49,N/A$
42.42,31.43,7.43,0.05,0.03,-0.10,-9.33,3.76,-0.88,-12.30,49.60,-41.30,0.000000,0.000000,0.00,0,0,62.53,N/A$
42.23,31.45,8.28,-0.12,-0.29,-0.34,-9.12,3.34,-0.70,-3.10,53.60,-34.00,0.000000,0.000000,0.00,0,0,62.52,N/A$
-0.37,34.52,8.28,0.03,-0.08,-0.04,-8.96,2.86,-0.58,-4.20,54.00,-33.40,0.000000,0.000000,0.00,0,0,62.71,N/A$
-0.45,34.49,8.28,0.15,0.25,0.37,-8.35,2.80,-0.08,-4.10,54.80,-34.70,0.000000,0.000000,0.00,0,0,62.71,N/A$
-0.54,34.48,8.28,-0.09,-0.27,-0.36,-9.86,3.14,-0.55,-3.70,54.80,-34.10,0.000000,0.000000,0.00,0,0,62.71,N/A$
-0.44,34.48,8.28,0.13,-0.06,-0.14,-9.14,2.95,-0.28,-3.70,53.40,-32.90,0.000000,0.000000,0.00,0,0,62.70,N/A$
-0.39,34.47,8.28,0.21,0.17,-0.04,-9.47,3.02,-0.26,-1.60,52.10,-35.30,0.000000,0.000000,0.00,0,0,62.68,N/A$
-0.39,34.47,8.28,0.21,-0.06,-0.43,-9.64,1.97,0.44,-1.30,54.80,-35.70,0.000000,0.000000,0.00,0,0,62.67,N/A$
-0.24,34.46,8.28,0.29,0.10,-0.28,-8.77,1.50,-0.43,0.90,54.10,-33.50,0.000000,0.000000,0.00,0,0,62.66,N/A$
-0.21,34.46,8.28,0.04,0.08,-0.12,-9.23,2.14,0.10,-0.70,54.10,-33.20,0.000000,0.000000,0.00,0,0,62.66,N/A$
-0.17,34.46,8.28,0.14,0.32,0.25,-9.92,2.39,-0.09,0.60,54.20,-33.60,0.000000,0.000000,0.00,0,0,62.67,N/A$
-0.12,34.46,8.28,0.03,0.25,0.17,-9.57,3.41,-1.02,-1.50,55.80,-33.30,0.000000,0.000000,0.00,0,0,62.66,N/A$
-0.12,34.46,8.16,0.06,0.02,0.35,-9.36,3.35,-0.93,-1.80,54.30,-32.30,0.000000,0.000000,0.00,0,0,62.62,N/A$
-0.19,34.46,8.07,0.02,-0.05,-0.00,-9.65,2.70,-0.21,-9.70,49.80,-40.90,0.000000,0.000000,0.00,0,0,62.59,N/A$
41.79,31.44,7.41,0.07,0.14,0.13,-9.77,3.34,-0.56,-11.00,50.50,-41.20,0.000000,0.000000,0.00,0,0,62.47,N/A$
41.60,31.46,7.42,0.11,-0.05,-0.04,-9.10,3.05,-0.76,-9.80,50.60,-42.30,0.000000,0.000000,0.00,0,0,62.40,N/A$
40.62,31.57,8.07,0.03,-0.19,0.01,-8.84,3.13,-0.76,-4.20,52.20,-35.70,0.000000,0.000000,0.00,0,0,62.33,N/A$
39.77,31.64,7.45,0.16,0.03,0.14,-9.18,2.63,-0.67,-9.70,50.10,-41.40,0.000000,0.000000,0.00,0,0,62.23,N/A$
39.31,31.68,7.42,0.17,0.39,0.31,-9.23,2.62,-0.42,-9.60,49.80,-42.60,0.000000,0.000000,0.00,0,0,62.21,N/A$
39.52,31.67,7.43,0.04,0.15,0.15,-8.69,2.20,-0.68,-11.00,51.80,-41.20,0.000000,0.000000,0.00,0,0,62.19,N/A$
39.35,31.62,8.27,-0.06,-0.10,0.03,-9.58,2.95,-1.11,-5.10,54.20,-32.90,0.000000,0.000000,0.00,0,0,62.17,N/A$
-0.42,34.52,8.27,0.17,0.07,0.20,-9.24,3.14,-0.98,-3.50,54.40,-32.70,0.000000,0.000000,0.00,0,0,62.27,N/A$
-0.30,34.50,8.27,0.04,0.00,0.04,-8.98,3.25,-1.19,-4.90,55.30,-32.50,0.000000,0.000000,0.00,0,0,62.23,N/A$
-0.10,34.49,8.28,0.05,0.13,-0.05,-9.43,3.26,-1.28,-3.40,53.10,-34.00,0.000000,0.000000,0.00,0,0,62.18,N/A$
-0.12,34.48,8.28,0.08,0.18,0.06,-9.69,3.02,-0.42,-2.80,55.10,-32.10,0.000000,0.000000,0.00,0,0,62.14,N/A$
-0.24,34.48,8.27,-0.00,0.38,0.07,-9.40,2.71,0.57,-3.80,54.10,-33.70,0.000000,0.000000,0.00,0,0,62.13,N/A$
-0.32,34.48,8.28,-0.07,-0.10,0.05,-8.36,3.55,-0.39,-4.10,55.40,-32.30,0.000000,0.000000,0.00,0,0,62.11,N/A$
-0.19,34.47,8.27,-0.15,-0.92,-0.15,-8.98,2.83,-1.77,-3.80,54.70,-32.30,0.000000,0.000000,0.00,0,0,62.11,N/A$
-0.39,34.47,8.28,-0.12,-0.75,-0.15,-9.55,2.17,-0.14,-0.30,55.30,-35.80,0.000000,0.000000,0.00,0,0,62.12,N/A$
-0.25,34.47,8.28,-0.15,-0.74,-0.55,-9.33,1.59,1.00,2.30,54.10,-35.60,0.000000,0.000000,0.00,0,0,62.12,N/A$
-0.24,34.47,8.28,-0.67,-0.93,-0.97,-9.20,1.19,2.92,6.70,53.40,-37.00,0.000000,0.000000,0.00,0,0,62.14,N/A$
-0.29,34.47,8.27,-0.43,-0.90,-0.22,-10.00,1.14,2.65,10.80,55.10,-40.00,0.000000,0.000000,0.00,0,0,62.16,N/A$
-0.36,34.47,8.07,-0.64,-0.94,-0.24,-11.39,1.68,4.14,4.20,50.50,-47.80,0.000000,0.000000,0.00,0,0,62.17,N/A$
0.83,34.47,7.41,-0.01,0.46,0.49,-9.59,1.11,2.65,3.80,48.80,-50.20,0.000000,0.000000,0.00,0,0,62.18,N/A$
38.37,31.68,7.41,0.28,0.65,0.58,-10.23,1.55,2.62,1.40,49.90,-48.70,0.000000,0.000000,0.00,0,0,62.08,N/A$
27.01,32.51,7.40,-1.57,1.59,2.85,-9.48,3.27,3.31,-2.00,46.40,-57.30,0.000000,0.000000,0.00,0,0,62.11,N/A$
18.79,33.09,8.03,0.01,-0.75,0.11,-10.80,1.06,3.41,-4.30,45.30,-50.40,0.000000,0.000000,0.00,0,0,62.12,N/A$
9.28,33.81,7.33,-0.25,0.58,-0.39,-10.29,4.94,1.63,-6.60,41.70,-57.00,0.000000,0.000000,0.00,0,0,62.12,N/A$
22.74,32.82,7.48,-0.38,0.16,-0.26,-9.12,3.32,1.14,-3.80,43.60,-60.20,0.000000,0.000000,0.00,0,0,62.04,N/A$
21.88,32.90,7.37,-0.49,0.21,-0.52,-10.61,2.02,2.75,1.60,45.00,-66.30,0.000000,0.000000,0.00,0,0,62.06,N/A$
27.51,32.47,8.27,-0.31,-0.21,0.47,-10.12,3.33,2.37,11.20,51.70,-60.00,0.000000,0.000000,0.00,0,0,62.04,N/A$
0.07,34.48,8.27,0.20,-0.04,-0.32,-7.62,2.21,1.79,12.10,52.70,-59.70,0.000000,0.000000,0.00,0,0,62.18,N/A$
-0.18,34.50,8.27,0.64,-0.46,-0.04,-10.21,2.22,2.08,13.60,53.80,-61.50,0.000000,0.000000,0.00,0,0,62.14,N/A$
-0.24,34.49,8.27,0.74,-0.31,-0.46,-9.35,3.48,1.65,12.40,51.70,-59.40,0.000000,0.000000,0.00,0,0,62.07,N/A$
-0.38,34.49,8.27,0.57,-0.75,-0.35,-4.57,1.88,1.82,6.70,59.20,-50.60,0.000000,0.000000,0.00,0,0,62.10,N/A$
-0.33,34.49,8.27,0.32,0.19,-0.70,-9.50,1.15,2.76,18.90,57.50,-49.20,0.000000,0.000000,0.00,0,0,62.20,N/A$
-0.35,34.48,8.28,0.77,0.04,-0.15,-6.32,1.43,1.21,29.20,58.80,-49.60,0.000000,0.000000,0.00,0,0,62.14,N/A$
-0.29,34.48,8.27,0.51,-0.53,-0.37,-8.42,0.63,3.40,42.30,64.40,-48.10,0.000000,0.000000,0.00,0,0,62.12,N/A$
-0.33,34.48,8.28,0.07,-0.29,-0.68,-9.06,0.72,3.95,53.40,66.90,-51.40,0.000000,0.000000,0.00,0,0,62.14,N/A$
-0.37,34.48,8.28,0.37,-0.16,0.26,-8.96,0.64,3.90,70.00,80.10,-50.30,0.000000,0.000000,0.00,0,0,62.11,N/A$
-0.46,34.48,8.27,0.21,-0.22,-0.15,-9.18,0.83,3.91,74.40,82.20,-53.30,0.000000,0.000000,0.00,0,0,62.06,N/A$
-0.44,34.48,8.14,0.19,-0.15,0.16,-9.02,1.29,4.03,61.60,75.00,-52.70,0.000000,0.000000,0.00,0,0,62.00,N/A$
-0.39,34.48,8.01,0.17,-0.14,0.04,-8.77,1.20,3.85,53.90,70.20,-61.90,0.000000,0.000000,0.00,0,0,61.94,N/A$
29.51,32.31,7.34,-0.18,-0.21,-0.53,-8.89,1.02,3.90,55.70,75.50,-61.70,0.000000,0.000000,0.00,0,0,61.83,N/A$
29.02,32.34,7.36,0.08,-0.27,-0.38,-9.21,1.30,4.40,57.60,75.40,-62.70,0.000000,0.000000,0.00,0,0,61.67,N/A$
29.18,32.36,8.01,0.21,-0.33,-0.48,-7.24,0.41,3.93,67.10,78.10,-54.80,0.000000,0.000000,0.00,0,0,61.54,N/A$
28.70,32.38,7.65,0.38,-0.35,-0.20,-9.01,0.90,4.56,64.20,74.50,-62.70,0.000000,0.000000,0.00,0,0,61.43,N/A$
28.71,32.39,7.37,0.41,-0.35,-0.15,-8.44,0.78,4.74,69.00,78.70,-62.70,0.000000,0.000000,0.00,0,0,61.30,N/A$
28.51,32.39,7.36,0.74,-0.30,-0.06,-8.62,0.84,5.19,68.90,79.20,-59.10,0.000000,0.000000,0.00,0,0,61.33,N/A$
28.26,32.43,8.26,0.54,-0.43,-0.77,-9.78,-0.14,6.03,83.60,83.90,-48.10,0.000000,0.000000,0.00,0,0,61.17,N/A$
-0.25,34.50,8.27,0.18,-0.21,-0.21,-5.55,1.76,4.96,82.50,87.70,-48.00,0.000000,0.000000,0.00,0,0,61.16,N/A$
-0.35,34.50,8.26,0.35,-0.03,0.05,-6.90,0.00,5.17,84.20,87.40,-47.20,0.000000,0.000000,0.00,0,0,61.18,N/A$
-0.19,34.49,8.26,0.46,-0.03,-0.14,-8.75,0.50,5.55,86.80,89.10,-46.40,0.000000,0.000000,0.00,0,0,61.13,N/A$
-0.25,34.49,8.27,0.34,-0.10,0.15,-6.97,0.47,5.51,88.60,90.10,-44.10,0.000000,0.000000,0.00,0,0,61.09,N/A$
-0.02,34.48,8.27,0.36,-0.15,-0.01,-7.55,-0.67,5.32,91.40,89.40,-45.70,0.000000,0.000000,0.00,0,0,61.04,N/A$
-0.48,34.48,8.27,-0.29,0.15,-0.57,-7.54,0.42,4.96,92.70,92.30,-43.50,0.000000,0.000000,0.00,0,0,60.97,N/A$
-0.30,34.48,8.27,-0.61,0.28,-0.34,-6.32,-0.39,4.31,91.60,92.90,-46.40,0.000000,0.000000,0.00,0,0,60.92,N/A$
-0.63,34.47,8.27,0.19,0.08,0.18,-8.31,0.37,5.69,93.00,94.20,-45.40,0.000000,0.000000,0.00,0,0,60.86,N/A$
-0.26,34.47,8.27,0.38,0.09,1.34,-7.01,-1.98,4.78,90.50,93.50,-44.80,0.000000,0.000000,0.00,0,0,60.82,N/A$
-0.47,34.47,8.27,0.35,-0.13,0.28,-8.45,-0.30,5.23,94.00,94.40,-47.00,0.000000,0.000000,0.00,0,0,60.78,N/A$
-0.35,34.46,8.27,0.37,0.30,0.30,-9.04,-1.89,6.07,96.50,94.20,-45.80,0.000000,0.000000,0.00,0,0,60.74,N/A$
-0.15,34.46,8.02,0.10,0.21,0.64,-7.44,-0.96,4.91,85.70,89.20,-57.50,0.000000,0.000000,0.00,0,0,60.69,N/A$
10.11,33.73,7.33,-0.27,0.06,-0.70,-7.23,-0.46,3.84,85.50,87.90,-57.20,0.000000,0.000000,0.00,0,0,60.63,N/A$
30.74,32.20,7.33,-0.54,-0.26,-0.57,-7.14,-0.07,4.71,85.70,90.30,-57.10,0.000000,0.000000,0.00,0,0,60.53,N/A$
30.42,32.23,7.36,-0.23,-0.09,-0.65,-7.41,1.31,4.62,85.50,92.70,-57.10,0.000000,0.000000,0.00,0,0,60.50,N/A$
30.57,32.23,8.02,-0.03,0.05,-0.16,-7.40,-0.86,4.94,89.30,91.20,-58.00,0.000000,0.000000,0.00,0,0,60.48,N/A$
12.15,33.59,7.33,0.01,-0.02,0.25,-7.47,-0.61,4.56,87.20,91.60,-57.30,0.000000,0.000000,0.00,0,0,60.51,N/A$
29.62,32.29,7.33,0.00,0.17,-0.04,-8.37,-0.91,4.69,87.40,92.80,-58.70,0.000000,0.000000,0.00,0,0,60.43,N/A$
29.01,32.33,7.35,0.22,0.12,0.65,-7.08,-1.19,5.20,91.20,93.50,-59.30,0.000000,0.000000,0.00,0,0,60.41,N/A$
28.85,32.34,8.26,0.48,0.30,1.02,-9.80,-2.05,6.30,101.00,98.60,-47.70,0.000000,0.000000,0.00,0,0,60.40,N/A$
-0.38,34.49,8.26,0.34,0.02,0.44,-8.78,-1.27,5.64,101.90,98.60,-50.60,0.000000,0.000000,0.00,0,0,60.48,N/A$
-0.45,34.48,8.26,-0.11,-0.04,-0.48,-7.26,-0.77,4.32,100.80,98.50,-52.10,0.000000,0.000000,0.00,0,0,60.47,N/A$
-0.48,34.47,8.26,-0.42,-0.50,-1.18,-8.29,-1.35,4.70,101.80,100.00,-49.10,0.000000,0.000000,0.00,0,0,60.42,N/A$
-0.41,34.47,8.27,-0.28,0.17,-0.40,-10.41,0.32,6.43,102.60,98.10,-50.00,0.000000,0.000000,0.00,0,0,60.42,N/A$
-0.42,34.47,8.27,-0.63,-0.08,-1.11,-8.14,0.06,4.82,100.90,98.40,-51.10,0.000000,0.000000,0.00,0,0,60.43,N/A$
-0.48,34.46,8.27,-0.22,-0.24,-0.23,-8.48,-1.13,5.48,103.40,98.90,-51.70,0.000000,0.000000,0.00,0,0,60.44,N/A$
-0.54,34.46,8.27,0.31,0.36,0.92,-7.82,-0.61,4.25,100.50,95.90,-51.20,0.000000,0.000000,0.00,0,0,60.41,N/A$
-0.35,34.46,8.27,0.31,0.37,0.73,-6.78,-1.04,5.13,104.10,99.10,-53.70,0.000000,0.000000,0.00,0,0,60.50,N/A$
-0.45,34.46,8.27,0.21,0.40,0.36,-9.09,-0.22,5.25,105.70,100.50,-52.50,0.000000,0.000000,0.00,0,0,60.54,N/A$
-0.55,34.46,8.26,0.31,0.06,0.73,-7.61,-1.13,5.71,106.20,100.30,-53.30,0.000000,0.000000,0.00,0,0,60.46,N/A$
-0.36,34.45,8.03,-0.71,-0.07,-1.47,-6.81,2.07,3.34,105.00,98.60,-55.30,0.000000,0.000000,0.00,0,0,60.57,N/A$
-0.56,34.45,8.02,-0.21,-0.31,-0.62,-7.09,-1.06,4.87,97.30,94.80,-64.20,0.000000,0.000000,0.00,0,0,60.58,N/A$
29.56,32.27,7.33,-0.57,0.56,-0.85,-8.60,1.15,5.26,98.70,97.80,-62.80,0.000000,0.000000,0.00,0,0,60.53,N/A$
29.48,32.30,7.36,-0.05,-0.11,-0.01,-7.44,-0.39,5.18,99.50,97.60,-64.50,0.000000,0.000000,0.00,0,0,60.49,N/A$
29.67,32.29,8.02,0.13,0.07,0.56,-9.12,-1.00,6.53,105.80,101.40,-55.60,0.000000,0.000000,0.00,0,0,60.48,N/A$
29.98,32.26,7.37,0.39,-0.15,0.29,-8.96,-0.29,5.38,99.00,96.90,-68.30,0.000000,0.000000,0.00,0,0,60.52,N/A$
29.35,32.32,7.49,-0.24,-0.10,-0.80,-7.60,0.28,5.10,101.80,98.90,-64.80,0.000000,0.000000,0.00,0,0,60.53,N/A$
29.19,32.35,7.35,-0.27,-0.26,-0.51,-8.02,-1.51,5.48,97.60,96.00,-64.50,0.000000,0.000000,0.00,0,0,60.61,N/A$
29.12,32.35,8.26,-0.65,0.40,0.26,-8.39,-0.55,5.48,79.70,83.80,-44.90,0.000000,0.000000,0.00,0,0,60.69,N/A$
25.52,32.57,8.26,-0.85,0.96,1.09,-8.19,0.81,5.29,44.60,64.90,-34.10,0.000000,0.000000,0.00,0,0,60.59,N/A$
-0.18,34.48,8.26,-1.30,0.82,1.41,-10.08,0.62,4.80,24.30,58.60,-38.30,0.000000,0.000000,0.00,0,0,60.74,N/A$
-0.23,34.47,8.26,-1.26,0.66,0.53,-9.54,1.95,4.13,15.30,55.00,-47.00,0.000000,0.000000,0.00,0,0,60.70,N/A$
-0.33,34.47,8.26,-0.93,0.48,0.34,-10.34,1.00,1.78,11.70,56.60,-57.20,0.000000,0.000000,0.00,0,0,60.83,N/A$
-0.49,34.46,8.26,-0.66,-0.14,0.43,-10.21,1.43,1.76,10.40,58.00,-66.60,0.000000,0.000000,0.00,0,0,60.87,N/A$
-0.40,34.46,8.26,-0.30,-0.25,0.31,-9.20,1.97,2.49,5.60,56.80,-82.10,0.000000,0.000000,0.00,0,0,60.91,N/A$
-0.52,34.46,8.26,-0.26,0.16,0.60,-10.66,2.76,2.84,10.30,64.20,-89.40,0.000000,0.000000,0.00,0,0,60.95,N/A$
-0.36,34.45,8.26,-0.00,-0.04,0.25,-8.50,2.25,2.37,11.60,72.80,-92.30,0.000000,0.000000,0.00,0,0,60.97,N/A$
-0.28,34.46,8.26,0.00,0.00,-0.08,-9.68,1.88,3.32,14.70,81.50,-102.50,0.000000,0.000000,0.00,0,0,61.02,N/A$
-0.42,34.45,8.26,-0.01,0.03,0.02,-9.69,2.64,3.56,15.20,86.00,-98.30,0.000000,0.000000,0.00,0,0,61.06,N/A$
-0.57,34.45,8.27,0.13,-0.04,-0.04,-8.44,2.77,2.92,25.30,87.00,-79.10,0.000000,0.000000,0.00,0,0,61.10,N/A$
-0.36,34.45,8.02,0.14,0.00,0.12,-8.68,2.72,2.91,6.10,62.80,-84.60,0.000000,0.000000,0.00,0,0,61.14,N/A$
17.17,33.20,7.35,0.20,-0.07,0.05,-9.14,2.28,3.09,4.80,62.90,-83.10,0.000000,0.000000,0.00,0,0,61.09,N/A$
22.71,32.78,7.32,0.16,-0.07,0.04,-9.22,1.49,2.99,3.00,60.50,-84.80,0.000000,0.000000,0.00,0,0,61.09,N/A$
22.89,32.78,7.33,0.11,-0.21,-0.39,-9.01,2.15,2.68,5.60,60.40,-85.50,0.000000,0.000000,0.00,0,0,61.10,N/A$
25.24,32.61,8.02,0.11,-0.50,-1.17,-10.72,2.82,3.42,4.90,56.40,-84.20,0.000000,0.000000,0.00,0,0,61.12,N/A$
17.63,33.15,7.33,0.09,0.07,-0.95,-9.95,1.06,3.92,6.70,58.20,-79.80,0.000000,0.000000,0.00,0,0,61.18,N/A$
26.52,32.52,7.36,0.25,0.36,-0.16,-9.59,0.59,3.91,9.40,57.70,-72.60,0.000000,0.000000,0.00,0,0,61.14,N/A$
25.81,32.57,7.34,0.09,0.34,-0.33,-8.93,-0.43,3.37,8.80,57.80,-69.40,0.000000,0.000000,0.00,0,0,61.13,N/A$
24.16,32.70,8.25,0.06,-0.03,-0.15,-9.22,-0.16,3.66,19.10,63.30,-56.30,0.000000,0.000000,0.00,0,0,61.16,N/A$
-0.26,34.47,8.26,-0.15,0.08,-0.46,-9.25,-1.43,2.83,20.80,65.00,-56.70,0.000000,0.000000,0.00,0,0,61.25,N/A$
-0.20,34.47,8.26,-0.18,-0.10,-0.51,-9.07,-1.16,3.06,21.60,65.90,-57.70,0.000000,0.000000,0.00,0,0,61.25,N/A$
-0.39,34.47,8.26,0.08,0.08,-0.49,-8.93,-1.55,3.15,23.00,67.10,-55.40,0.000000,0.000000,0.00,0,0,61.26,N/A$
-0.30,34.46,8.26,0.12,0.13,-0.88,-9.13,-1.51,3.37,22.80,68.30,-55.20,0.000000,0.000000,0.00,0,0,61.26,N/A$
-0.37,34.46,8.26,-0.14,0.04,-0.50,-9.03,-1.77,3.04,21.20,67.20,-53.20,0.000000,0.000000,0.00,0,0,61.26,N/A$
-0.46,34.46,8.26,0.45,-0.11,1.06,-9.53,-1.04,3.50,18.50,65.30,-54.60,0.000000,0.000000,0.00,0,0,61.27,N/A$
-0.24,34.47,8.26,-0.07,-0.01,0.21,-8.96,-1.48,3.01,18.80,66.30,-51.40,0.000000,0.000000,0.00,0,0,61.35,N/A$
-0.47,34.47,8.26,0.07,0.22,-0.47,-9.09,-1.05,3.81,17.50,68.60,-53.00,0.000000,0.000000,0.00,0,0,61.27,N/A$
-0.55,34.47,8.26,-0.02,0.15,-0.56,-8.16,-2.59,3.38,13.90,70.50,-49.50,0.000000,0.000000,0.00,0,0,61.29,N/A$
-0.37,34.47,8.26,-0.10,0.04,-0.30,-9.29,-0.87,3.48,15.70,69.90,-50.90,0.000000,0.000000,0.00,0,0,61.35,N/A$
-0.41,34.47,8.02,0.16,0.22,0.04,-9.25,-1.94,3.54,15.10,69.60,-47.80,0.000000,0.000000,0.00,0,0,61.30,N/A$
-0.20,34.47,8.01,0.12,0.15,0.43,-9.20,-1.03,3.67,5.80,63.20,-60.40,0.000000,0.000000,0.00,0,0,61.32,N/A$
24.06,32.69,7.36,0.07,0.06,0.06,-8.90,-1.18,3.58,4.80,65.70,-58.20,0.000000,0.000000,0.00,0,0,61.25,N/A$
23.38,32.74,7.33,0.12,-0.07,0.08,-9.28,-2.06,3.76,6.20,65.40,-61.00,0.000000,0.000000,0.00,0,0,61.26,N/A$
24.07,32.71,7.99,-0.13,0.03,-0.17,-9.13,-2.14,3.43,15.60,70.40,-51.20,0.000000,0.000000,0.00,0,0,61.28,N/A$
23.64,32.72,7.47,-0.12,0.06,-0.36,-8.54,-1.60,3.15,5.50,64.40,-58.70,0.000000,0.000000,0.00,0,0,61.30,N/A$
23.64,32.73,7.32,-0.00,0.14,-0.04,-9.82,-1.89,4.00,3.60,64.60,-59.90,0.000000,0.000000,0.00,0,0,61.31,N/A$
23.95,32.75,7.33,0.10,0.10,0.15,-9.09,-1.58,3.40,4.70,65.10,-58.50,0.000000,0.000000,0.00,0,0,61.32,N/A$
23.06,32.80,8.25,0.07,0.15,0.19,-9.35,-1.66,3.39,15.40,68.90,-52.30,0.000000,0.000000,0.00,0,0,61.30,N/A$
11.48,33.62,8.25,0.18,0.28,0.25,-9.18,-1.17,3.48,17.40,65.50,-50.40,0.000000,0.000000,0.00,0,0,61.27,N/A$
-0.22,34.49,8.26,0.43,0.52,0.24,-9.66,-1.15,3.46,18.20,68.00,-49.10,0.000000,0.000000,0.00,0,0,61.34,N/A$
-0.28,34.49,8.25,0.37,0.67,0.02,-9.81,-0.42,2.96,22.80,65.40,-47.70,0.000000,0.000000,0.00,0,0,61.34,N/A$
-0.34,34.48,8.26,0.41,0.57,-0.11,-9.70,-0.07,2.02,28.90,64.40,-45.20,0.000000,0.000000,0.00,0,0,61.34,N/A$
-0.39,34.48,8.26,0.52,0.07,-0.05,-9.67,-0.61,1.62,40.00,58.20,-44.90,0.000000,0.000000,0.00,0,0,61.43,N/A$
-0.25,34.48,8.26,0.30,0.08,-0.03,-10.24,-0.46,1.73,39.00,54.30,-44.60,0.000000,0.000000,0.00,0,0,61.41,N/A$
-0.50,34.48,8.26,0.16,0.02,-0.03,-9.68,-0.95,1.55,44.30,48.40,-42.00,0.000000,0.000000,0.00,0,0,61.43,N/A$
-0.03,34.48,8.26,0.01,-0.00,-0.16,-9.86,-0.86,1.86,47.80,45.40,-43.00,0.000000,0.000000,0.00,0,0,61.38,N/A$
-0.34,34.48,8.26,-0.03,0.13,-0.20,-9.65,-0.74,1.74,48.60,46.80,-44.00,0.000000,0.000000,0.00,0,0,61.35,N/A$
-0.41,34.49,8.26,-0.02,0.09,-0.25,-9.71,-0.75,1.66,49.10,44.90,-44.60,0.000000,0.000000,0.00,0,0,61.35,N/A$
-0.25,34.49,8.26,0.02,0.05,-0.20,-10.12,-0.90,1.77,51.00,44.20,-44.80,0.000000,0.000000,0.00,0,0,61.36,N/A$
-0.18,34.49,7.99,0.07,0.06,0.02,-9.39,-0.68,1.56,42.30,37.50,-58.70,0.000000,0.000000,0.00,0,0,61.35,N/A$
24.64,32.68,7.31,0.02,-0.02,0.03,-9.89,-0.77,1.68,43.70,37.40,-56.80,0.000000,0.000000,0.00,0,0,61.29,N/A$
26.16,32.58,7.32,-0.02,-0.02,-0.07,-9.76,-0.80,1.63,41.80,40.80,-54.60,0.000000,0.000000,0.00,0,0,61.30,N/A$
26.17,32.59,7.34,0.03,0.06,-0.03,-9.56,-0.77,1.74,43.50,34.60,-57.50,0.000000,0.000000,0.00,0,0,61.31,N/A$
23.84,32.76,7.99,0.07,-0.09,-0.11,-9.58,-0.99,1.62,44.80,35.50,-58.70,0.000000,0.000000,0.00,0,0,61.32,N/A$
23.93,32.76,7.36,0.00,-0.12,-0.31,-9.48,-1.34,1.59,42.80,35.90,-56.00,0.000000,0.000000,0.00,0,0,61.31,N/A$
24.49,32.71,7.36,0.14,-0.27,-0.10,-10.04,-1.23,2.11,41.30,33.60,-57.40,0.000000,0.000000,0.00,0,0,61.31,N/A$
25.11,32.68,7.33,0.05,-0.05,0.10,-9.77,-1.22,2.19,45.30,36.70,-57.70,0.000000,0.000000,0.00,0,0,61.31,N/A$
25.97,32.60,8.25,0.14,-0.16,0.20,-9.52,-1.36,2.22,54.50,39.30,-47.90,0.000000,0.000000,0.00,0,0,61.32,N/A$
-0.53,34.53,8.25,0.09,-0.07,0.13,-9.64,-1.40,2.53,53.70,39.30,-47.30,0.000000,0.000000,0.00,0,0,61.44,N/A$
-0.34,34.53,8.25,0.13,0.00,0.10,-9.43,-1.24,2.51,53.50,40.80,-47.70,0.000000,0.000000,0.00,0,0,61.48,N/A$
-0.55,34.52,8.26,0.19,-0.10,0.04,-9.28,-1.84,2.53,56.00,41.50,-49.00,0.000000,0.000000,0.00,0,0,61.54,N/A$
-0.32,34.52,8.26,0.12,-0.09,0.14,-9.66,-1.34,2.62,54.40,39.40,-46.80,0.000000,0.000000,0.00,0,0,61.58,N/A$
-0.25,34.52,8.25,0.09,0.01,-0.01,-9.72,-1.34,2.59,53.20,41.00,-48.40,0.000000,0.000000,0.00,0,0,61.61,N/A$
-0.23,34.52,8.25,0.08,-0.03,0.00,-9.55,-1.42,2.56,52.90,38.00,-48.70,0.000000,0.000000,0.00,0,0,61.65,N/A$
-0.52,34.53,8.26,0.04,0.03,-0.05,-9.51,-1.23,2.63,55.20,38.10,-47.50,0.000000,0.000000,0.00,0,0,61.68,N/A$
-0.44,34.52,8.26,0.02,-0.15,-0.16,-9.32,-1.51,2.73,54.40,37.70,-47.20,0.000000,0.000000,0.00,0,0,61.69,N/A$
-0.33,34.53,8.26,0.02,-0.13,-0.20,-9.20,-1.62,2.82,53.80,37.40,-49.00,0.000000,0.000000,0.00,0,0,61.73,N/A$
-0.62,34.53,8.26,0.02,-0.07,-0.10,-9.57,-1.71,2.94,51.70,36.50,-46.40,0.000000,0.000000,0.00,0,0,61.76,N/A$
-0.53,34.53,8.02,0.06,0.06,0.02,-9.15,-1.87,2.97,55.10,35.60,-45.90,0.000000,0.000000,0.00,0,0,61.79,N/A$
-0.10,34.53,8.00,0.22,-0.05,0.05,-9.26,-1.46,3.16,44.70,29.80,-55.70,0.000000,0.000000,0.00,0,0,61.81,N/A$
26.50,32.58,7.35,0.42,-0.30,-0.04,-9.38,-1.29,3.50,42.90,30.90,-56.60,0.000000,0.000000,0.00,0,0,61.74,N/A$
27.24,32.52,7.36,0.42,-0.07,0.14,-9.76,-1.60,3.72,45.00,34.40,-55.20,0.000000,0.000000,0.00,0,0,61.76,N/A$
29.13,32.39,8.00,0.18,-0.03,0.15,-9.65,-1.00,3.92,56.10,37.50,-45.80,0.000000,0.000000,0.00,0,0,61.75,N/A$
19.91,33.08,7.41,0.12,-0.04,-0.00,-9.13,-0.84,3.74,45.30,34.00,-54.60,0.000000,0.000000,0.00,0,0,61.79,N/A$
29.76,32.36,7.34,0.11,0.02,-0.19,-8.79,-0.81,3.74,43.00,34.90,-53.70,0.000000,0.000000,0.00,0,0,61.76,N/A$
30.08,32.34,7.36,0.27,-0.06,0.17,-8.40,-0.52,3.30,39.10,29.90,-52.90,0.000000,0.000000,0.00,0,0,61.75,N/A$
30.15,32.34,8.25,0.24,-0.01,0.18,-9.57,-1.03,4.13,51.90,38.20,-44.40,0.000000,0.000000,0.00,0,0,61.72,N/A$
2.36,34.36,8.25,0.08,-0.07,0.02,-9.00,-0.48,3.76,53.20,38.50,-45.70,0.000000,0.000000,0.00,0,0,61.74,N/A$
-0.58,34.56,8.25,0.11,-0.06,0.09,-9.29,-1.33,4.01,50.60,37.30,-44.70,0.000000,0.000000,0.00,0,0,61.67,N/A$
-0.54,34.55,8.25,0.00,-0.20,-0.12,-9.03,-0.86,4.02,49.50,35.70,-42.60,0.000000,0.000000,0.00,0,0,61.60,N/A$
-0.52,34.54,8.25,-0.02,0.07,-0.08,-9.57,-1.12,4.55,53.80,35.10,-42.80,0.000000,0.000000,0.00,0,0,61.60,N/A$
-0.62,34.54,8.25,-0.02,0.00,-0.15,-9.14,-0.88,3.86,54.20,35.70,-42.80,0.000000,0.000000,0.00,0,0,61.58,N/A$
-0.70,34.53,8.26,-0.02,-0.03,-0.11,-9.25,-1.00,3.97,55.60,37.40,-45.30,0.000000,0.000000,0.00,0,0,61.45,N/A$
-0.62,34.53,8.25,0.05,-0.01,-0.01,-9.24,-0.86,4.12,55.20,36.80,-44.00,0.000000,0.000000,0.00,0,0,61.54,N/A$
-0.60,34.53,8.25,0.07,0.03,-0.00,-9.54,-1.52,4.24,56.80,35.40,-43.10,0.000000,0.000000,0.00,0,0,61.48,N/A$
-0.43,34.53,8.25,-0.09,0.15,-0.05,-9.38,-1.11,3.97,53.50,36.40,-40.90,0.000000,0.000000,0.00,0,0,61.53,N/A$
-0.60,34.53,8.25,0.07,0.09,0.02,-8.80,-1.00,3.80,54.30,38.60,-48.20,0.000000,0.000000,0.00,0,0,61.47,N/A$
-0.65,34.53,8.25,0.08,0.03,0.05,-8.97,-1.31,3.95,52.70,38.60,-48.40,0.000000,0.000000,0.00,0,0,61.65,N/A$
-0.39,34.52,8.02,0.06,-0.04,-0.05,-8.82,-0.82,3.74,44.30,33.50,-57.60,0.000000,0.000000,0.00,0,0,61.53,N/A$
28.71,32.41,7.34,0.08,-0.04,0.15,-9.51,-1.44,4.19,45.20,33.20,-55.50,0.000000,0.000000,0.00,0,0,61.53,N/A$
26.30,32.60,7.33,0.05,0.05,0.08,-9.26,-0.93,3.91,46.10,32.90,-54.40,0.000000,0.000000,0.00,0,0,61.57,N/A$
27.20,32.54,7.35,0.09,-0.01,0.08,-9.05,-1.15,4.00,46.50,33.70,-56.90,0.000000,0.000000,0.00,0,0,61.55,N/A$
26.22,32.61,8.00,-0.03,0.05,-0.03,-8.91,-1.75,3.86,43.70,31.20,-52.70,0.000000,0.000000,0.00,0,0,61.56,N/A$
25.63,32.67,7.32,0.05,0.02,-0.02,-8.93,-0.96,3.64,42.70,31.10,-56.10,0.000000,0.000000,0.00,0,0,61.59,N/A$
26.42,32.60,7.34,0.22,-0.08,0.22,-9.27,-1.01,3.80,42.70,30.40,-51.60,0.000000,0.000000,0.00,0,0,61.63,N/A$
25.27,32.69,7.34,0.09,-0.12,0.08,-9.08,-1.22,3.61,45.90,30.90,-53.40,0.000000,0.000000,0.00,0,0,61.65,N/A$
18.68,33.14,8.25,0.06,-0.04,-0.02,-9.22,-1.10,4.02,54.10,39.20,-46.20,0.000000,0.000000,0.00,0,0,61.70,N/A$
-0.43,34.56,8.25,0.06,0.12,-0.02,-9.19,-1.34,3.86,53.90,39.00,-46.90,0.000000,0.000000,0.00,0,0,61.79,N/A$
-0.57,34.55,8.25,0.11,0.11,0.18,-9.14,-1.04,3.82,54.50,39.00,-44.20,0.000000,0.000000,0.00,0,0,61.79,N/A$
-0.50,34.55,8.25,0.27,0.75,0.55,-10.40,-1.01,4.19,53.80,37.00,-43.90,0.000000,0.000000,0.00,0,0,61.82,N/A$
-0.44,34.54,8.25,0.32,0.99,1.03,-9.14,-0.20,2.32,54.00,36.50,-39.90,0.000000,0.000000,0.00,0,0,61.82,N/A$
-0.28,34.54,8.25,0.14,0.52,0.71,-10.09,-0.06,2.05,41.20,54.90,-36.50,0.000000,0.000000,0.00,0,0,61.87,N/A$
-0.34,34.54,8.25,-0.07,0.19,0.24,-8.89,-0.47,1.44,24.50,62.50,-34.70,0.000000,0.000000,0.00,0,0,61.90,N/A$
-0.48,34.54,8.25,-0.42,0.26,-0.05,-9.13,-0.07,1.38,15.60,58.10,-33.80,0.000000,0.000000,0.00,0,0,61.91,N/A$
-0.53,34.53,8.25,-0.10,0.07,0.51,-12.03,0.82,2.44,16.80,59.00,-32.80,0.000000,0.000000,0.00,0,0,61.93,N/A$
-0.55,34.54,8.25,0.43,-0.57,0.16,-11.33,0.73,1.99,17.70,66.30,-33.60,0.000000,0.000000,0.00,0,0,61.96,N/A$
-0.60,34.54,8.25,1.23,-1.52,3.36,-8.43,4.99,2.64,13.00,84.00,-34.40,0.000000,0.000000,0.00,0,0,61.99,N/A$
-0.70,34.54,8.13,1.07,-0.87,1.45,-7.78,6.00,3.63,14.30,89.40,-45.70,0.000000,0.000000,0.00,0,0,61.95,N/A$
3.64,34.28,8.02,0.35,-0.67,-0.37,-6.86,5.19,3.37,29.30,101.30,-75.30,0.000000,0.000000,0.00,0,0,61.93,N/A$
47.25,31.13,7.38,0.25,-0.48,0.17,-5.31,7.77,2.84,23.40,98.80,-68.30,0.000000,0.000000,0.00,0,0,61.77,N/A$
62.92,30.01,7.37,0.25,-0.36,-0.22,-5.00,7.03,3.90,33.30,115.40,-70.20,0.000000,0.000000,0.00,0,0,61.71,N/A$
47.44,31.13,8.03,0.11,0.09,-0.98,-5.05,6.19,2.84,45.30,122.90,-60.40,0.000000,0.000000,0.00,0,0,61.75,N/A$
14.93,33.53,7.41,-0.66,-0.03,-2.08,-6.50,6.60,3.59,44.40,116.30,-71.50,0.000000,0.000000,0.00,0,0,61.83,N/A$
39.80,31.68,7.36,0.11,0.71,-1.25,-7.94,4.25,3.26,55.40,106.40,-73.80,0.000000,0.000000,0.00,0,0,61.73,N/A$
39.23,31.71,7.36,0.04,0.49,-0.49,-8.31,2.88,2.84,51.30,99.50,-69.60,0.000000,0.000000,0.00,0,0,61.70,N/A$
35.72,31.96,8.24,0.10,0.26,-0.04,-9.12,3.64,2.83,53.80,101.00,-55.00,0.000000,0.000000,0.00,0,0,61.71,N/A$
-0.56,34.58,8.25,-0.18,0.45,-0.26,-8.58,3.72,1.39,49.50,99.30,-53.80,0.000000,0.000000,0.00,0,0,61.81,N/A$
-0.44,34.57,8.25,-0.34,0.36,-0.61,-9.21,3.16,2.40,56.50,101.00,-55.70,0.000000,0.000000,0.00,0,0,61.83,N/A$
-0.37,34.57,8.25,-0.31,-0.02,-0.25,-9.27,1.35,1.40,61.00,99.80,-58.10,0.000000,0.000000,0.00,0,0,61.81,N/A$
-0.40,34.56,8.25,-0.45,0.41,-0.12,-10.04,2.09,2.14,53.60,96.40,-54.40,0.000000,0.000000,0.00,0,0,61.80,N/A$
-0.47,34.55,8.25,-0.23,-0.16,-0.20,-9.13,2.83,1.80,46.90,97.80,-54.40,0.000000,0.000000,0.00,0,0,61.80,N/A$
-0.39,34.55,8.25,-0.08,-0.26,-0.48,-10.69,3.41,3.04,51.50,99.00,-56.80,0.000000,0.000000,0.00,0,0,61.81,N/A$
-0.52,34.55,8.25,0.09,-0.12,0.21,-9.72,2.18,2.13,42.70,94.30,-52.10,0.000000,0.000000,0.00,0,0,61.81,N/A$
-0.53,34.55,8.25,0.51,-0.03,0.61,-10.01,2.19,1.40,36.70,87.80,-51.40,0.000000,0.000000,0.00,0,0,61.82,N/A$
-0.45,34.54,8.25,-0.00,-0.43,1.12,-10.65,1.61,0.55,34.00,88.80,-52.90,0.000000,0.000000,0.00,0,0,61.88,N/A$
-0.65,34.54,8.25,0.27,-0.06,0.19,-9.79,4.49,3.06,29.00,89.20,-52.60,0.000000,0.000000,0.00,0,0,61.82,N/A$
-0.60,34.54,8.25,0.12,-0.08,-0.52,-9.19,3.42,1.78,29.00,89.30,-53.40,0.000000,0.000000,0.00,0,0,61.92,N/A$
-0.62,34.54,8.03,0.14,0.01,-0.29,-10.26,2.25,2.94,25.50,89.20,-59.60,0.000000,0.000000,0.00,0,0,61.83,N/A$
-0.64,34.54,7.36,-0.00,0.09,-0.36,-9.74,2.86,1.93,28.60,88.40,-61.70,0.000000,0.000000,0.00,0,0,61.92,N/A$
40.94,31.55,7.40,0.34,0.40,-0.20,-9.22,1.87,1.85,27.30,88.40,-62.60,0.000000,0.000000,0.00,0,0,61.83,N/A$
38.17,31.75,7.39,0.15,-0.05,-0.08,-9.21,2.20,1.70,25.80,89.10,-58.80,0.000000,0.000000,0.00,0,0,61.90,N/A$
39.72,31.67,8.03,0.08,0.03,0.02,-9.58,1.91,2.11,26.80,86.10,-56.80,0.000000,0.000000,0.00,0,0,61.89,N/A$
38.68,31.70,7.38,0.05,-0.00,0.08,-9.73,2.19,1.69,23.20,86.00,-61.00,0.000000,0.000000,0.00,0,0,61.88,N/A$
38.76,31.75,7.41,0.08,-0.11,0.08,-9.70,2.46,2.00,23.40,85.10,-57.30,0.000000,0.000000,0.00,0,0,61.89,N/A$
38.97,31.74,7.39,0.05,0.03,0.08,-9.87,2.90,2.41,24.40,86.80,-57.60,0.000000,0.000000,0.00,0,0,61.91,N/A$
31.49,31.71,8.25,0.05,0.11,0.02,-9.66,2.34,2.08,33.40,92.40,-50.50,0.000000,0.000000,0.00,0,0,62.00,N/A$
-0.59,34.58,8.24,0.06,0.06,0.06,-9.47,2.07,1.98,34.60,91.40,-51.80,0.000000,0.000000,0.00,0,0,62.08,N/A$
-0.68,34.58,8.25,0.02,0.07,0.05,-9.42,1.84,2.20,33.40,92.10,-51.20,0.000000,0.000000,0.00,0,0,62.10,N/A$
-0.65,34.56,8.25,-0.31,-0.17,0.20,-7.47,2.85,2.33,34.50,91.10,-52.30,0.000000,0.000000,0.00,0,0,62.10,N/A$
-0.51,34.56,8.25,-0.37,-0.09,-0.26,-11.71,2.04,3.26,34.70,83.70,-50.10,0.000000,0.000000,0.00,0,0,62.13,N/A$
-0.54,34.55,8.25,-0.58,0.12,-0.77,-9.84,1.72,2.19,29.60,67.80,-42.10,0.000000,0.000000,0.00,0,0,62.13,N/A$
-0.59,34.55,8.25,-0.40,-0.01,-0.79,-9.48,0.99,2.25,53.40,56.80,-48.80,0.000000,0.000000,0.00,0,0,62.14,N/A$
-0.48,34.55,8.25,-0.01,0.13,-0.01,-9.59,1.13,2.38,42.50,42.90,-53.60,0.000000,0.000000,0.00,0,0,62.16,N/A$
-0.55,34.55,8.26,-0.06,-0.04,-0.31,-9.42,0.84,2.07,47.10,34.10,-49.90,0.000000,0.000000,0.00,0,0,62.18,N/A$
-0.48,34.55,8.25,-0.08,-0.41,-0.48,-10.10,1.14,2.05,49.40,29.90,-51.30,0.000000,0.000000,0.00,0,0,62.19,N/A$
-0.53,34.55,8.25,-0.11,-0.30,-0.17,-9.50,-0.18,2.29,49.60,28.30,-50.40,0.000000,0.000000,0.00,0,0,62.22,N/A$
-0.30,34.55,8.03,0.04,-0.38,-0.18,-9.44,-0.59,3.25,50.20,26.60,-50.00,0.000000,0.000000,0.00,0,0,62.27,N/A$
24.50,32.75,8.00,-0.04,-0.31,-0.03,-10.26,-0.49,4.49,42.10,19.60,-57.00,0.000000,0.000000,0.00,0,0,62.22,N/A$
27.87,32.51,7.34,-0.72,-0.15,-0.78,-9.36,-0.19,3.54,42.60,20.90,-57.40,0.000000,0.000000,0.00,0,0,62.25,N/A$
27.44,32.56,7.36,-0.53,0.02,0.43,-8.73,-0.02,3.85,43.50,20.20,-59.90,0.000000,0.000000,0.00,0,0,62.27,N/A$
25.43,32.72,8.01,-0.34,0.02,-0.14,-10.09,-0.67,4.16,48.60,21.20,-60.70,0.000000,0.000000,0.00,0,0,62.32,N/A$
17.72,33.27,7.38,-0.55,0.13,-1.39,-8.77,-0.37,4.83,49.90,22.10,-67.00,0.000000,0.000000,0.00,0,0,62.38,N/A$
21.20,33.02,7.36,-0.30,0.57,0.55,-9.79,-2.63,2.91,44.50,18.70,-64.40,0.000000,0.000000,0.00,0,0,62.41,N/A$
21.07,33.02,7.38,-0.04,0.39,0.82,-8.47,-2.58,3.53,34.70,34.00,-58.90,0.000000,0.000000,0.00,0,0,62.43,N/A$
24.86,32.76,8.24,0.13,0.14,1.16,-7.95,0.47,2.76,30.20,50.50,-44.50,0.000000,0.000000,0.00,0,0,62.44,N/A$
-0.53,34.59,8.24,-0.12,0.24,1.05,-9.93,-0.38,2.86,23.10,53.50,-44.50,0.000000,0.000000,0.00,0,0,62.55,N/A$
-0.33,34.59,8.24,-0.37,0.49,0.48,-9.94,0.69,2.74,21.00,54.50,-50.50,0.000000,0.000000,0.00,0,0,62.58,N/A$
-0.26,34.58,8.25,-0.31,0.43,0.28,-9.25,0.22,1.97,17.70,55.10,-56.50,0.000000,0.000000,0.00,0,0,62.62,N/A$
-0.37,34.58,8.25,-0.21,0.11,0.23,-9.52,0.44,1.78,11.90,59.00,-56.00,0.000000,0.000000,0.00,0,0,62.66,N/A$
-0.55,34.58,8.25,-0.22,0.14,-0.07,-9.83,0.11,2.06,8.30,60.10,-54.20,0.000000,0.000000,0.00,0,0,62.70,N/A$
-0.50,34.58,8.24,-0.15,0.11,-0.01,-9.60,0.74,1.67,7.00,61.80,-52.50,0.000000,0.000000,0.00,0,0,62.75,N/A$
-0.34,34.58,8.25,-0.21,0.00,0.05,-9.86,0.36,1.77,5.20,63.30,-54.80,0.000000,0.000000,0.00,0,0,62.81,N/A$
-0.33,34.58,8.25,-0.18,0.07,-0.11,-9.54,0.48,1.98,6.00,63.30,-55.90,0.000000,0.000000,0.00,0,0,62.88,N/A$
-0.46,34.58,8.25,-0.14,0.10,-0.18,-10.21,0.48,1.93,6.00,64.40,-59.60,0.000000,0.000000,0.00,0,0,62.94,N/A$
-0.55,34.58,8.25,-0.05,0.14,0.02,-10.72,0.49,2.11,6.30,64.00,-57.30,0.000000,0.000000,0.00,0,0,63.01,N/A$
-0.36,34.58,8.25,0.38,0.15,-0.04,-10.48,-1.17,1.24,8.50,65.70,-53.30,0.000000,0.000000,0.00,0,0,63.07,N/A$
-0.44,34.59,8.06,0.12,0.05,-0.27,-9.97,0.45,1.92,1.80,58.90,-65.20,0.000000,0.000000,0.00,0,0,63.10,N/A$
-0.26,34.58,7.40,0.17,-0.01,0.21,-10.40,0.33,2.04,2.80,58.20,-64.00,0.000000,0.000000,0.00,0,0,63.23,N/A$
17.43,33.30,7.40,0.15,-0.02,0.07,-10.07,0.56,2.06,3.80,51.90,-71.10,0.000000,0.000000,0.00,0,0,63.19,N/A$
16.85,33.35,7.41,0.12,-0.08,0.11,-9.25,0.28,1.77,16.60,39.00,-71.80,0.000000,0.000000,0.00,0,0,63.17,N/A$
17.88,33.28,8.04,0.09,-0.06,0.10,-9.87,0.06,1.84,20.70,46.10,-68.90,0.000000,0.000000,0.00,0,0,63.28,N/A$
18.26,33.25,7.40,0.06,-0.01,0.04,-9.56,0.76,1.83,18.90,48.30,-66.50,0.000000,0.000000,0.00,0,0,63.24,N/A$
18.96,33.22,7.40,0.08,-0.08,-0.04,-9.84,0.37,2.00,18.00,47.10,-64.30,0.000000,0.000000,0.00,0,0,63.17,N/A$
19.28,33.19,7.41,0.07,0.12,-0.15,-10.00,0.50,2.32,19.40,47.10,-63.60,0.000000,0.000000,0.00,0,0,63.30,N/A$
19.65,33.17,8.24,0.15,-0.11,0.05,-9.82,0.38,2.25,28.30,50.90,-57.60,0.000000,0.000000,0.00,0,0,63.30,N/A$
8.54,33.95,8.24,-0.05,0.05,-0.04,-9.39,0.57,1.82,27.70,48.60,-56.10,0.000000,0.000000,0.00,0,0,63.33,N/A$
-0.36,34.62,8.24,0.04,0.07,0.02,-10.05,0.09,2.25,30.90,46.20,-56.90,0.000000,0.000000,0.00,0,0,63.29,N/A$
-0.65,34.61,8.24,-0.01,-0.07,0.07,-10.57,-0.15,2.64,32.40,43.60,-57.10,0.000000,0.000000,0.00,0,0,63.31,N/A$
-0.26,34.60,8.25,-0.09,0.08,-0.12,-9.64,0.21,1.96,34.30,43.80,-58.00,0.000000,0.000000,0.00,0,0,63.38,N/A$
-0.24,34.61,8.25,0.25,0.00,0.49,-9.45,0.65,1.95,37.00,41.10,-58.80,0.000000,0.000000,0.00,0,0,63.40,N/A$
-0.27,34.60,8.25,0.03,-0.01,-0.20,-9.78,0.24,2.32,41.00,36.80,-62.60,0.000000,0.000000,0.00,0,0,63.42,N/A$
-0.50,34.60,8.24,0.27,-0.02,-0.24,-9.73,0.85,2.50,41.40,39.20,-61.00,0.000000,0.000000,0.00,0,0,63.46,N/A$
-0.38,34.60,8.25,-0.09,0.07,-0.12,-9.73,-0.27,2.22,40.00,37.00,-58.90,0.000000,0.000000,0.00,0,0,63.49,N/A$
-0.40,34.60,8.24,0.20,0.14,0.30,-9.65,0.53,2.08,35.80,40.30,-58.40,0.000000,0.000000,0.00,0,0,63.52,N/A$
-0.53,34.61,8.25,0.13,0.13,-0.04,-8.59,-0.05,2.38,38.90,38.30,-57.30,0.000000,0.000000,0.00,0,0,63.53,N/A$
-0.55,34.61,8.14,0.06,-0.07,-0.05,-9.35,0.40,1.95,43.80,35.00,-60.10,0.000000,0.000000,0.00,0,0,63.55,N/A$
-0.56,34.61,8.06,0.09,-0.06,0.03,-10.00,0.29,2.34,37.00,29.60,-69.30,0.000000,0.000000,0.00,0,0,63.54,N/A$
21.66,33.01,7.40,0.00,0.10,-0.09,-8.96,0.54,1.07,36.90,31.20,-70.00,0.000000,0.000000,0.00,0,0,63.48,N/A$
21.86,33.01,7.43,0.11,-0.05,0.04,-9.44,0.12,2.18,36.20,31.90,-69.40,0.000000,0.000000,0.00,0,0,63.55,N/A$
21.03,33.09,8.07,-0.02,0.01,0.09,-10.20,0.81,1.84,39.80,30.80,-67.80,0.000000,0.000000,0.00,0,0,63.60,N/A$
20.31,33.16,7.46,0.07,-0.10,0.11,-10.49,0.34,2.56,34.50,29.70,-70.00,0.000000,0.000000,0.00,0,0,63.63,N/A$
20.39,33.15,7.41,0.09,0.09,0.06,-9.02,0.26,2.16,34.40,28.50,-71.20,0.000000,0.000000,0.00,0,0,63.65,N/A$
20.44,33.15,7.43,0.08,0.09,0.13,-9.62,0.32,2.40,34.10,28.80,-70.00,0.000000,0.000000,0.00,0,0,63.67,N/A$
20.74,33.13,8.24,-0.02,-0.09,-0.06,-8.25,0.58,1.77,41.90,34.30,-61.20,0.000000,0.000000,0.00,0,0,63.69,N/A$
-0.63,34.66,8.24,0.08,0.02,0.02,-10.13,0.74,2.30,41.30,32.60,-64.30,0.000000,0.000000,0.00,0,0,63.80,N/A$
-0.65,34.65,8.24,0.00,0.00,0.19,-9.40,-0.20,2.10,42.30,31.90,-63.90,0.000000,0.000000,0.00,0,0,63.81,N/A$
-0.58,34.64,8.24,-0.00,-0.09,0.05,-10.46,0.77,2.19,41.70,32.30,-64.60,0.000000,0.000000,0.00,0,0,63.83,N/A$
-0.57,34.63,8.24,0.08,0.11,-0.14,-8.93,0.45,1.72,43.10,31.90,-66.30,0.000000,0.000000,0.00,0,0,63.87,N/A$
-0.41,34.63,8.24,0.05,-0.07,-0.01,-9.21,0.21,2.63,43.10,32.50,-64.40,0.000000,0.000000,0.00,0,0,63.88,N/A$
-0.72,34.63,8.25,0.07,0.17,-0.15,-9.25,0.68,2.24,43.00,30.70,-62.40,0.000000,0.000000,0.00,0,0,63.88,N/A$
-0.55,34.63,8.24,0.04,-0.22,-0.05,-8.65,-0.35,1.84,43.00,31.00,-66.20,0.000000,0.000000,0.00,0,0,63.90,N/A$
-0.46,34.63,8.25,0.06,0.07,-0.15,-10.66,0.25,3.12,43.20,30.90,-64.30,0.000000,0.000000,0.00,0,0,63.92,N/A$
-0.54,34.63,8.25,0.18,0.02,0.18,-11.08,0.17,2.59,44.60,31.60,-64.80,0.000000,0.000000,0.00,0,0,63.97,N/A$
-0.46,34.63,8.24,0.06,-0.05,0.17,-10.17,0.39,2.71,44.50,30.70,-64.90,0.000000,0.000000,0.00,0,0,64.00,N/A$
-0.34,34.63,8.25,0.18,0.13,0.14,-11.21,0.41,3.03,45.50,30.10,-67.50,0.000000,0.000000,0.00,0,0,64.04,N/A$
-0.40,34.63,8.05,0.10,-0.19,0.16,-10.28,0.76,2.92,39.80,27.00,-70.40,0.000000,0.000000,0.00,0,0,64.07,N/A$
0.31,34.63,7.41,-0.01,-0.13,-0.26,-7.90,0.21,1.39,40.00,25.00,-71.00,0.000000,0.000000,0.00,0,0,64.11,N/A$
22.37,32.99,7.40,0.09,0.11,-0.06,-8.84,0.40,2.22,38.90,26.30,-69.90,0.000000,0.000000,0.00,0,0,64.06,N/A$
22.60,33.00,7.41,0.08,-0.08,-0.07,-8.44,0.27,2.59,39.20,26.60,-73.00,0.000000,0.000000,0.00,0,0,64.12,N/A$
22.32,33.02,8.06,0.19,-0.13,0.03,-7.79,0.65,1.92,39.70,25.80,-71.00,0.000000,0.000000,0.00,0,0,64.17,N/A$
14.56,33.59,7.41,0.14,-0.17,0.27,-10.38,0.54,3.07,38.90,23.70,-71.30,0.000000,0.000000,0.00,0,0,64.20,N/A$
22.60,33.03,7.41,0.09,0.06,0.08,-10.26,1.34,2.07,39.90,23.20,-69.70,0.000000,0.000000,0.00,0,0,64.30,N/A$
22.31,33.03,7.41,0.24,0.19,0.26,-11.60,0.51,1.45,40.70,23.90,-70.10,0.000000,0.000000,0.00,0,0,64.27,N/A$
22.25,33.06,8.24,-0.00,0.03,0.17,-11.08,0.77,2.11,47.70,27.90,-65.10,0.000000,0.000000,0.00,0,0,64.40,N/A$
-0.63,34.70,8.24,0.18,0.07,0.17,-10.80,0.25,2.59,46.50,25.40,-65.70,0.000000,0.000000,0.00,0,0,64.67,N/A$
-0.44,34.69,8.24,0.07,-0.16,0.25,-11.04,0.27,2.97,47.30,25.20,-65.70,0.000000,0.000000,0.00,0,0,64.63,N/A$
-0.56,34.68,8.24,-0.11,0.05,-0.44,-9.35,1.76,1.74,45.70,25.00,-65.30,0.000000,0.000000,0.00,0,0,64.72,N/A$
-0.69,34.68,8.25,-0.00,-0.09,-0.13,-7.97,0.75,1.80,49.50,24.50,-66.00,0.000000,0.000000,0.00,0,0,64.72,N/A$
-0.63,34.68,8.24,0.05,-0.07,-0.07,-9.73,0.59,3.40,48.80,23.10,-66.80,0.000000,0.000000,0.00,0,0,64.81,N/A$
-0.62,34.67,8.25,-0.09,0.15,-0.36,-6.90,1.57,1.12,49.30,23.60,-67.30,0.000000,0.000000,0.00,0,0,64.80,N/A$
-0.67,34.67,8.24,0.04,0.04,-0.05,-9.87,0.83,2.55,48.40,22.10,-67.50,0.000000,0.000000,0.00,0,0,64.86,N/A$
-0.66,34.67,8.24,0.13,-0.03,-0.09,-8.49,0.28,1.87,48.80,21.80,-66.10,0.000000,0.000000,0.00,0,0,64.89,N/A$
-0.50,34.67,8.24,0.17,-0.08,0.09,-9.61,0.29,2.36,49.00,22.10,-66.10,0.000000,0.000000,0.00,0,0,64.91,N/A$
-0.58,34.67,8.24,0.11,0.18,0.20,-12.58,1.25,3.30,47.80,21.10,-66.50,0.000000,0.000000,0.00,0,0,64.95,N/A$
-0.59,34.67,8.13,0.09,0.00,0.08,-9.81,0.47,2.52,49.10,21.20,-65.90,0.000000,0.000000,0.00,0,0,65.00,N/A$
-0.38,34.67,8.04,0.08,-0.00,-0.15,-8.48,0.26,1.67,42.30,18.10,-75.10,0.000000,0.000000,0.00,0,0,64.99,N/A$
22.66,33.02,7.40,0.09,-0.08,0.03,-10.38,0.27,2.91,41.80,15.20,-73.90,0.000000,0.000000,0.00,0,0,65.02,N/A$
22.71,33.04,7.41,0.10,0.10,-0.13,-9.44,0.61,2.59,42.50,14.80,-73.60,0.000000,0.000000,0.00,0,0,65.01,N/A$
22.41,33.06,8.06,0.12,-0.19,-0.00,-8.63,0.28,1.98,46.20,17.40,-70.50,0.000000,0.000000,0.00,0,0,65.14,N/A$
22.49,33.06,7.41,-0.03,0.11,-0.13,-9.97,0.72,2.23,42.70,14.10,-73.40,0.000000,0.000000,0.00,0,0,65.16,N/A$
22.44,33.08,7.41,0.05,-0.00,-0.00,-9.55,0.08,2.62,42.80,14.20,-73.00,0.000000,0.000000,0.00,0,0,65.19,N/A$
22.07,33.11,7.42,0.09,0.14,-0.00,-8.45,0.66,1.71,41.70,14.40,-73.10,0.000000,0.000000,0.00,0,0,65.25,N/A$
16.86,33.44,8.24,0.15,0.09,-0.02,-8.93,0.31,2.40,49.70,17.40,-66.70,0.000000,0.000000,0.00,0,0,65.41,N/A$
-0.31,34.73,8.24,0.14,-0.18,0.21,-10.03,-0.09,2.49,49.50,18.40,-66.60,0.000000,0.000000,0.00,0,0,65.54,N/A$
-0.27,34.72,8.24,0.06,-0.06,0.00,-10.57,0.57,1.93,49.50,17.70,-67.10,0.000000,0.000000,0.00,0,0,65.61,N/A$
-0.37,34.71,8.24,0.10,-0.08,-0.00,-8.98,0.75,2.25,48.20,18.80,-67.00,0.000000,0.000000,0.00,0,0,65.68,N/A$
-0.24,34.71,8.24,0.12,-0.13,0.25,-10.05,0.28,3.35,47.00,19.40,-67.80,0.000000,0.000000,0.00,0,0,65.75,N/A$
-0.58,34.71,8.24,0.00,-0.25,0.26,-10.97,0.90,2.62,46.50,18.90,-69.00,0.000000,0.000000,0.00,0,0,65.80,N/A$
-0.56,34.71,8.24,0.14,-0.18,-0.03,-9.99,0.70,3.23,49.80,18.50,-70.10,0.000000,0.000000,0.00,0,0,65.82,N/A$
-0.28,34.71,8.24,0.19,0.22,0.06,-10.15,0.40,2.75,46.80,23.10,-68.80,0.000000,0.000000,0.00,0,0,65.83,N/A$
-0.40,34.71,8.24,0.20,0.06,0.29,-8.58,0.21,2.62,23.00,52.20,-55.90,0.000000,0.000000,0.00,0,0,65.85,N/A$
-0.52,34.71,8.24,0.02,-1.81,0.73,-7.39,2.63,3.23,7.70,56.10,-55.10,0.000000,0.000000,0.00,0,0,65.84,N/A$
-0.42,34.71,8.24,-1.44,-4.14,-0.82,-8.44,0.28,6.19,2.30,59.40,-58.40,0.000000,0.000000,0.00,0,0,65.84,N/A$
-0.37,34.71,8.25,-2.77,-4.47,-1.97,-2.88,-2.32,6.99,-4.60,65.00,-72.80,0.000000,0.000000,0.00,0,0,65.83,N/A$
-0.46,34.71,8.03,-0.95,-4.47,0.51,7.29,-5.21,5.28,-32.40,63.30,-79.60,0.000000,0.000000,0.00,0,0,65.82,N/A$
9.88,34.06,7.35,1.92,-3.04,0.61,8.50,-5.15,3.63,-50.70,66.80,-63.50,0.000000,0.000000,0.00,0,0,65.76,N/A$
57.82,30.55,7.37,1.13,0.35,-1.44,5.33,-3.65,-1.45,-53.70,63.80,-47.60,0.000000,0.000000,0.00,0,0,65.49,N/A$
43.57,31.55,7.39,0.99,-3.01,1.42,6.38,-1.11,3.88,-48.20,60.10,-27.70,0.000000,0.000000,0.00,0,0,65.47,N/A$
32.63,32.37,7.99,1.68,-2.10,-0.26,9.59,2.01,-2.48,-39.20,61.70,-13.30,0.000000,0.000000,0.00,0,0,65.45,N/A$
12.45,33.86,7.33,1.19,0.25,1.17,9.02,1.20,-1.63,-39.20,65.30,-9.00,0.000000,0.000000,0.00,0,0,65.40,N/A$
24.71,32.93,7.36,0.30,-0.05,0.06,9.74,-1.98,-0.48,-39.00,65.20,-10.10,0.000000,0.000000,0.00,0,0,65.20,N/A$
25.09,32.89,7.34,0.27,0.13,-0.03,10.08,0.96,0.65,-38.30,67.40,-9.60,0.000000,0.000000,0.00,0,0,65.04,N/A$
26.55,32.79,8.24,0.08,0.02,0.03,9.98,-0.20,-0.41,-28.20,71.20,-0.20,0.000000,0.000000,0.00,0,0,64.89,N/A$
-0.79,34.76,8.24,0.08,0.02,0.03,9.89,-0.06,-0.41,-28.70,70.30,1.00,0.000000,0.000000,0.00,0,0,64.87,N/A$
-0.91,34.76,8.24,0.08,0.02,0.03,9.71,-0.18,-0.37,-28.80,70.30,0.70,0.000000,0.000000,0.00,0,0,64.76,N/A$
-0.70,34.75,8.24,0.07,0.02,0.03,10.11,-0.03,-0.39,-28.20,71.30,-0.70,0.000000,0.000000,0.00,0,0,64.65,N/A$
-0.33,34.75,8.24,0.08,0.01,0.03,9.99,-0.13,-0.37,-29.40,69.40,0.20,0.000000,0.000000,0.00,0,0,64.48,N/A$
-0.60,34.75,8.24,0.08,0.02,0.03,9.83,-0.10,-0.37,-30.10,70.70,-0.60,0.000000,0.000000,0.00,0,0,64.50,N/A$
-0.69,34.75,8.24,0.07,0.02,0.03,9.96,-0.08,-0.39,-28.10,70.30,0.40,0.000000,0.000000,0.00,0,0,64.36,N/A$
-0.85,34.74,8.24,0.08,0.02,0.03,10.07,-0.24,-0.41,-29.00,68.20,0.30,0.000000,0.000000,0.00,0,0,64.24,N/A$
-0.43,34.75,8.24,0.08,0.02,0.02,9.92,-0.05,-0.40,-27.60,69.20,-0.60,0.000000,0.000000,0.00,0,0,64.26,N/A$
-0.61,34.75,8.24,0.08,0.02,0.03,10.10,-0.24,-0.41,-28.90,68.40,2.90,0.000000,0.000000,0.00,0,0,64.22,N/A$
-0.66,34.75,8.24,0.08,0.02,0.02,9.95,-0.06,-0.45,-28.30,68.90,0.00,0.000000,0.000000,0.00,0,0,64.19,N/A$
-0.61,34.75,8.24,0.08,0.01,0.03,9.87,-0.12,-0.35,-29.90,69.70,0.90,0.000000,0.000000,0.00,0,0,64.16,N/A$
-0.58,34.75,7.99,0.06,0.01,0.04,9.84,-0.11,-0.40,-38.80,63.40,-9.60,0.000000,0.000000,0.00,0,0,64.10,N/A$
54.04,30.82,7.31,0.06,0.01,0.04,9.73,-0.09,-0.40,-38.30,65.40,-8.60,0.000000,0.000000,0.00,0,0,63.87,N/A$
54.09,30.85,7.33,0.07,0.02,0.04,10.01,-0.09,-0.40,-37.20,65.50,-9.70,0.000000,0.000000,0.00,0,0,63.81,N/A$
53.90,30.91,7.98,0.07,0.01,0.03,9.85,-0.11,-0.44,-32.00,68.20,-3.90,0.000000,0.000000,0.00,0,0,63.77,N/A$
52.44,30.95,7.46,0.06,0.01,0.04,10.16,0.08,-0.36,-38.70,63.40,-8.30,0.000000,0.000000,0.00,0,0,63.82,N/A$
54.02,30.90,7.34,0.06,0.02,0.04,9.93,-0.14,-0.32,-37.90,64.60,-11.40,0.000000,0.000000,0.00,0,0,63.68,N/A$
54.53,30.88,7.33,0.06,0.01,0.04,9.89,-0.16,-0.37,-39.40,65.60,-8.30,0.000000,0.000000,0.00,0,0,63.80,N/A$
53.67,30.96,8.24,0.08,0.04,0.00,10.04,-0.01,-0.27,-32.00,70.90,-0.60,0.000000,0.000000,0.00,0,0,63.77,N/A$
7.71,34.22,8.24,0.08,0.00,0.03,10.03,-0.07,-0.37,-34.90,72.00,0.60,0.000000,0.000000,0.00,0,0,63.87,N/A$
-0.54,34.82,8.24,0.07,0.00,0.03,9.90,-0.11,-0.35,-36.20,70.80,0.90,0.000000,0.000000,0.00,0,0,63.85,N/A$
-0.51,34.81,8.24,0.08,-0.00,0.04,9.93,0.00,-0.32,-37.10,72.80,1.20,0.000000,0.000000,0.00,0,0,63.84,N/A$
-0.46,34.80,8.24,0.08,0.02,0.03,9.78,-0.11,-0.09,-38.50,73.60,0.60,0.000000,0.000000,0.00,0,0,63.76,N/A$
-0.56,34.79,8.24,0.07,-0.02,0.03,9.93,-0.43,-1.12,-41.70,74.00,0.30,0.000000,0.000000,0.00,0,0,63.82,N/A$
-0.24,34.79,8.24,0.07,0.03,0.02,9.91,-0.07,-0.46,-45.00,73.30,1.70,0.000000,0.000000,0.00,0,0,63.75,N/A$
-0.42,34.79,8.24,0.08,0.04,0.02,9.96,-0.16,-0.48,-46.40,74.60,2.70,0.000000,0.000000,0.00,0,0,63.68,N/A$
-0.54,34.78,8.24,0.07,0.00,0.06,9.95,-0.19,-0.47,-46.30,75.30,2.50,0.000000,0.000000,0.00,0,0,63.69,N/A$
-0.46,34.78,8.24,0.07,0.03,0.00,9.46,-0.43,-0.78,-47.40,73.40,4.30,0.000000,0.000000,0.00,0,0,63.71,N/A$
-0.36,34.78,8.24,0.08,0.03,0.00,10.12,-0.16,-0.58,-46.80,71.50,3.80,0.000000,0.000000,0.00,0,0,63.73,N/A$
-0.25,34.78,8.24,0.09,0.00,0.01,9.73,0.06,-0.45,-47.10,74.10,6.50,0.000000,0.000000,0.00,0,0,63.75,N/A$
-0.40,34.78,8.01,0.07,-0.00,0.05,9.89,-0.24,-0.71,-57.70,67.70,-2.80,0.000000,0.000000,0.00,0,0,63.75,N/A$
44.52,31.59,7.34,0.28,0.02,0.04,9.81,-0.67,0.23,-59.10,66.90,-1.70,0.000000,0.000000,0.00,0,0,63.60,N/A$
51.85,31.06,7.32,0.06,-0.08,0.01,10.00,-0.02,0.18,-58.30,70.50,-1.80,0.000000,0.000000,0.00,0,0,63.59,N/A$
51.78,31.07,7.35,0.01,0.11,0.00,9.93,-0.09,-0.73,-58.00,69.50,-2.60,0.000000,0.000000,0.00,0,0,63.55,N/A$
52.63,31.05,7.99,0.06,-0.00,0.03,9.95,-0.25,-0.60,-59.60,69.20,-2.80,0.000000,0.000000,0.00,0,0,63.52,N/A$
45.62,31.55,7.31,0.06,-0.05,0.05,9.98,-0.05,-0.26,-59.10,69.10,-1.60,0.000000,0.000000,0.00,0,0,63.51,N/A$
50.91,31.17,7.34,0.06,-0.00,0.03,10.19,-0.13,-1.28,-58.50,68.30,-1.20,0.000000,0.000000,0.00,0,0,63.45,N/A$
51.43,31.13,7.33,0.05,-0.01,0.04,10.02,-0.14,-0.58,-59.50,71.40,-2.60,0.000000,0.000000,0.00,0,0,63.43,N/A$
50.13,31.15,8.24,0.08,-0.05,0.04,9.93,-0.18,-0.50,-48.40,75.40,7.20,0.000000,0.000000,0.00,0,0,63.42,N/A$
-0.49,34.85,8.24,0.07,0.03,0.00,9.88,-0.04,-0.24,-50.90,75.00,7.50,0.000000,0.000000,0.00,0,0,63.58,N/A$
-0.56,34.83,8.24,0.09,-0.13,0.06,9.63,0.20,-1.51,-48.40,73.80,6.70,0.000000,0.000000,0.00,0,0,63.56,N/A$
-0.61,34.82,8.24,0.06,0.10,0.00,10.00,-0.05,-0.16,-49.70,73.20,6.40,0.000000,0.000000,0.00,0,0,63.55,N/A$
-0.59,34.82,8.24,0.07,0.00,0.03,9.99,-0.14,-0.55,-49.20,75.00,6.40,0.000000,0.000000,0.00,0,0,63.55,N/A$
-0.27,34.81,8.24,0.07,0.14,0.01,9.67,-0.26,0.33,-50.70,74.10,8.60,0.000000,0.000000,0.00,0,0,63.57,N/A$
-0.55,34.80,8.24,0.08,0.00,0.03,9.81,-0.07,-0.45,-49.20,74.90,8.90,0.000000,0.000000,0.00,0,0,63.58,N/A$
-0.54,34.80,8.24,0.08,0.24,0.01,10.21,-0.03,1.51,-50.60,72.90,8.20,0.000000,0.000000,0.00,0,0,63.59,N/A$
-0.51,34.80,8.24,0.07,-0.02,0.04,9.95,-0.10,-0.52,-50.30,73.80,6.40,0.000000,0.000000,0.00,0,0,63.60,N/A$
-0.66,34.80,8.24,0.06,-0.03,0.01,10.46,-2.03,-3.10,-49.30,74.10,9.60,0.000000,0.000000,0.00,0,0,63.60,N/A$
-0.61,34.80,8.24,0.07,-0.02,0.05,10.10,-0.11,-0.45,-50.00,74.60,10.50,0.000000,0.000000,0.00,0,0,63.58,N/A$
-0.59,34.80,8.01,0.08,0.08,0.01,10.03,-0.06,0.27,-48.60,75.70,8.30,0.000000,0.000000,0.00,0,0,63.49,N/A$
0.71,34.81,7.91,0.06,-0.03,0.05,10.00,-0.18,-0.71,-60.60,69.80,-0.70,0.000000,0.000000,0.00,0,0,63.42,N/A$
53.21,30.96,7.35,0.07,0.39,0.04,6.52,-3.57,-1.49,-60.50,70.10,-0.30,0.000000,0.000000,0.00,0,0,63.17,N/A$
54.31,30.90,7.32,0.06,-0.03,0.06,9.77,-0.12,-0.45,-59.90,70.10,1.60,0.000000,0.000000,0.00,0,0,63.13,N/A$
54.20,30.91,7.98,0.03,-0.07,0.02,9.78,-0.06,-0.66,-52.70,74.00,5.20,0.000000,0.000000,0.00,0,0,63.09,N/A$
35.63,32.27,7.35,0.04,0.04,-0.00,9.84,-0.42,-0.83,-59.20,69.30,-3.40,0.000000,0.000000,0.00,0,0,63.13,N/A$
53.51,30.98,7.34,0.08,-0.11,0.07,9.54,-0.45,-0.66,-60.60,69.30,-1.70,0.000000,0.000000,0.00,0,0,63.03,N/A$
54.05,30.95,7.36,0.04,-0.05,0.04,10.15,-0.11,-0.49,-59.70,70.70,-1.50,0.000000,0.000000,0.00,0,0,63.00,N/A$
54.04,30.94,8.24,0.06,0.13,0.02,9.17,-0.36,-0.81,-50.90,74.60,7.40,0.000000,0.000000,0.00,0,0,62.97,N/A$
0.09,34.84,8.24,0.04,0.00,0.00,9.93,-0.45,-0.90,-52.30,75.00,7.90,0.000000,0.000000,0.00,0,0,63.14,N/A$
-0.39,34.86,8.23,0.07,0.01,0.02,9.99,-0.17,-0.45,-51.20,75.50,9.10,0.000000,0.000000,0.00,0,0,63.13,N/A$
-0.23,34.84,8.24,0.05,-0.02,0.02,9.93,0.06,-0.39,-51.30,75.60,10.00,0.000000,0.000000,0.00,0,0,63.08,N/A$
-0.46,34.84,8.24,0.06,-0.00,0.04,10.10,-0.00,-0.22,-51.40,75.10,9.00,0.000000,0.000000,0.00,0,0,63.08,N/A$
-0.46,34.83,8.24,0.05,-0.00,0.01,9.88,-0.20,-0.54,-52.10,74.80,7.80,0.000000,0.000000,0.00,0,0,63.02,N/A$
-0.39,34.82,8.24,0.06,0.00,0.04,10.10,0.00,-0.28,-50.50,75.80,6.60,0.000000,0.000000,0.00,0,0,62.97,N/A$
-0.50,34.82,8.24,0.07,0.01,0.00,9.89,-0.17,-0.39,-51.60,74.10,8.50,0.000000,0.000000,0.00,0,0,62.88,N/A$
-0.44,34.82,8.24,0.07,-0.10,0.03,9.99,0.08,-1.10,-52.00,74.00,8.80,0.000000,0.000000,0.00,0,0,62.85,N/A$
-0.46,34.82,8.24,0.04,-0.02,0.02,10.34,-0.30,-0.37,-52.70,74.30,7.90,0.000000,0.000000,0.00,0,0,62.88,N/A$
-0.42,34.82,8.24,0.08,0.22,-0.02,10.07,0.19,0.28,-53.50,75.00,10.00,0.000000,0.000000,0.00,0,0,62.78,N/A$
-0.36,34.81,8.24,0.10,0.37,0.04,9.18,-1.00,-0.77,-52.90,74.80,8.00,0.000000,0.000000,0.00,0,0,62.76,N/A$
-0.47,34.81,7.98,0.06,-0.03,0.06,9.71,-0.61,-0.50,-62.30,69.70,-0.10,0.000000,0.000000,0.00,0,0,62.72,N/A$
-0.45,34.81,7.35,0.04,-0.09,0.03,9.94,-0.11,-0.02,-62.30,70.30,1.80,0.000000,0.000000,0.00,0,0,62.67,N/A$
51.61,31.10,7.35,0.04,0.00,-0.01,10.28,-0.23,-1.05,-62.70,71.90,-1.10,0.000000,0.000000,0.00,0,0,62.37,N/A$
52.18,31.08,7.35,0.03,0.00,0.01,10.13,-0.06,-0.63,-64.00,71.80,1.30,0.000000,0.000000,0.00,0,0,62.27,N/A$
49.50,31.25,7.98,0.08,0.21,-0.02,10.07,0.19,3.07,-63.50,70.50,0.10,0.000000,0.000000,0.00,0,0,62.20,N/A$
48.95,31.32,7.35,0.04,-0.06,0.03,9.93,-0.15,-0.61,-63.80,70.90,-1.40,0.000000,0.000000,0.00,0,0,62.11,N/A$
49.00,31.32,7.34,0.03,-0.06,0.03,10.38,0.28,-0.03,-63.10,70.10,-2.10,0.000000,0.000000,0.00,0,0,62.02,N/A$
48.15,31.38,7.36,0.05,0.15,0.04,10.11,-0.20,-0.32,-63.70,70.30,0.50,0.000000,0.000000,0.00,0,0,61.96,N/A$
22.03,33.19,8.24,0.05,-0.03,0.03,9.94,-0.06,-0.36,-54.60,75.60,10.80,0.000000,0.000000,0.00,0,0,61.97,N/A$
-0.63,34.84,8.24,-0.01,0.11,-0.01,10.05,-0.35,-0.55,-53.10,74.10,8.60,0.000000,0.000000,0.00,0,0,61.98,N/A$
-0.81,34.83,8.24,0.06,-0.01,0.03,9.88,-0.05,-0.44,-53.50,75.30,10.00,0.000000,0.000000,0.00,0,0,61.90,N/A$
-0.71,34.81,8.24,0.25,-0.02,0.03,9.93,-0.44,-0.53,-54.10,76.30,9.10,0.000000,0.000000,0.00,0,0,61.86,N/A$
-0.47,34.79,8.24,0.00,0.00,0.03,10.11,0.15,-0.81,-42.00,69.60,5.40,0.000000,0.000000,0.00,0,0,61.82,N/A$
-0.45,34.77,8.24,0.05,-0.03,0.04,9.77,-0.24,-0.88,-35.00,68.50,1.20,0.000000,0.000000,0.00,0,0,61.79,N/A$
-0.36,34.76,8.24,0.05,0.03,0.02,9.95,-0.16,-0.55,-33.00,68.30,1.50,0.000000,0.000000,0.00,0,0,61.78,N/A$
-0.48,34.76,8.24,0.05,0.04,0.01,9.99,-0.11,-0.28,-35.40,64.60,1.60,0.000000,0.000000,0.00,0,0,61.77,N/A$
-0.48,34.76,8.24,0.06,0.00,0.02,9.89,-0.12,-0.43,-37.40,65.50,5.10,0.000000,0.000000,0.00,0,0,61.79,N/A$
-0.65,34.76,8.24,0.05,0.01,0.02,9.93,-0.10,-0.43,-38.30,66.80,2.50,0.000000,0.000000,0.00,0,0,61.79,N/A$
-0.55,34.76,8.24,0.06,0.02,0.03,9.96,-0.19,-0.41,-39.60,64.40,5.20,0.000000,0.000000,0.00,0,0,61.82,N/A$
-0.52,34.77,8.24,0.08,-0.06,0.02,9.76,-0.29,-1.36,-38.20,64.60,0.80,0.000000,0.000000,0.00,0,0,61.87,N/A$
19.12,33.39,7.98,0.07,-0.05,0.04,9.99,-0.05,-0.35,-45.40,61.90,-5.30,0.000000,0.000000,0.00,0,0,61.80,N/A$
35.97,32.18,7.36,0.04,0.06,0.00,9.97,-0.15,-0.36,-46.80,62.20,-5.50,0.000000,0.000000,0.00,0,0,61.78,N/A$
36.78,32.13,7.33,0.03,0.05,0.07,10.35,0.12,-0.75,-44.90,62.60,-6.00,0.000000,0.000000,0.00,0,0,61.79,N/A$
36.57,32.17,7.99,0.05,0.16,-0.05,9.82,-0.36,0.23,-34.70,66.50,2.90,0.000000,0.000000,0.00,0,0,61.81,N/A$
15.17,33.75,7.51,0.04,0.04,0.01,9.92,0.01,-0.21,-44.00,61.80,-7.50,0.000000,0.000000,0.00,0,0,61.90,N/A$
35.28,32.25,7.36,-0.13,-0.06,0.04,9.91,-0.25,-0.45,-45.00,63.30,-5.60,0.000000,0.000000,0.00,0,0,61.83,N/A$
35.56,32.24,7.36,0.05,0.04,-0.00,9.89,-0.15,-0.45,-46.70,62.50,-7.10,0.000000,0.000000,0.00,0,0,61.84,N/A$
35.52,32.21,8.23,0.06,0.01,0.02,10.31,0.37,-0.06,-36.70,67.90,1.90,0.000000,0.000000,0.00,0,0,61.86,N/A$
-0.54,34.82,8.24,0.06,-0.02,0.02,10.02,-0.12,-0.44,-38.70,68.40,2.50,0.000000,0.000000,0.00,0,0,62.01,N/A$
-0.51,34.81,8.24,0.06,0.04,-0.00,9.92,-0.00,-0.29,-40.20,66.30,3.90,0.000000,0.000000,0.00,0,0,62.03,N/A$
-0.43,34.80,8.24,0.05,-0.04,0.06,10.09,-0.16,-0.52,-41.40,67.40,4.10,0.000000,0.000000,0.00,0,0,62.05,N/A$
-0.36,34.80,8.24,0.07,-0.01,0.03,9.95,-0.24,-0.46,-39.60,66.50,5.00,0.000000,0.000000,0.00,0,0,62.10,N/A$
-0.38,34.80,8.24,0.07,-0.13,0.06,9.93,-0.25,-0.64,-38.20,68.90,2.00,0.000000,0.000000,0.00,0,0,62.13,N/A$
-0.24,34.80,8.24,0.06,-0.07,0.05,10.05,-0.20,-0.48,-40.20,68.80,2.40,0.000000,0.000000,0.00,0,0,62.19,N/A$
-0.49,34.80,8.24,0.06,-0.06,0.07,9.74,-0.50,-0.50,-43.70,65.70,4.80,0.000000,0.000000,0.00,0,0,62.22,N/A$
-0.33,34.80,8.24,0.06,0.04,0.00,9.94,-0.19,-0.36,-43.70,67.00,4.00,0.000000,0.000000,0.00,0,0,62.27,N/A$
-0.25,34.80,8.24,0.06,0.03,0.00,10.02,-0.11,-0.29,-44.70,66.80,6.50,0.000000,0.000000,0.00,0,0,62.30,N/A$
-0.27,34.80,8.24,0.05,0.02,0.02,9.91,-0.13,-0.33,-45.80,64.20,5.00,0.000000,0.000000,0.00,0,0,62.31,N/A$
-0.02,34.80,8.24,0.06,0.03,0.01,8.89,-0.67,-0.26,-45.90,64.70,6.30,0.000000,0.000000,0.00,0,0,62.34,N/A$
-0.32,34.80,7.99,0.05,0.00,0.01,10.11,0.03,-0.47,-54.20,59.80,-3.20,0.000000,0.000000,0.00,0,0,62.36,N/A$
-0.13,34.80,7.31,-0.00,0.00,0.03,10.01,-0.18,-0.46,-54.50,60.30,-4.80,0.000000,0.000000,0.00,0,0,62.35,N/A$
31.03,32.55,7.35,0.04,0.00,0.02,9.90,-0.09,-0.35,-55.70,59.70,-3.90,0.000000,0.000000,0.00,0,0,62.18,N/A$
31.09,32.55,7.36,0.04,0.00,0.03,9.99,-0.13,-0.40,-55.60,59.50,-2.10,0.000000,0.000000,0.00,0,0,62.15,N/A$
30.77,32.57,7.98,0.02,0.02,0.02,9.96,0.17,-0.00,-52.90,58.50,-2.30,0.000000,0.000000,0.00,0,0,62.17,N/A$
30.05,32.59,7.36,0.04,0.02,0.03,9.92,-0.38,-0.30,-55.90,59.70,-3.10,0.000000,0.000000,0.00,0,0,62.04,N/A$
30.02,32.64,7.35,0.05,-0.00,0.02,9.99,-0.08,-0.32,-54.80,58.90,-2.20,0.000000,0.000000,0.00,0,0,62.04,N/A$
30.89,32.59,7.36,0.04,0.02,0.01,10.05,-0.13,-0.50,-56.90,59.10,0.30,0.000000,0.000000,0.00,0,0,61.83,N/A$
29.63,32.66,8.23,0.04,0.01,0.02,9.97,-0.17,-0.47,-46.90,63.50,7.10,0.000000,0.000000,0.00,0,0,61.76,N/A$
-0.36,34.82,8.24,-0.04,0.01,0.02,9.69,-0.33,-0.52,-47.20,63.20,7.90,0.000000,0.000000,0.00,0,0,61.94,N/A$
-0.46,34.81,8.24,0.04,-0.02,0.02,10.07,-0.11,-0.35,-45.80,60.60,7.60,0.000000,0.000000,0.00,0,0,61.88,N/A$
-0.48,34.80,8.24,0.04,-0.02,0.04,10.11,-0.07,-0.04,-46.50,61.60,7.70,0.000000,0.000000,0.00,0,0,61.76,N/A$
-0.47,34.79,8.24,0.06,0.06,-0.03,9.96,-0.08,-0.21,-47.40,61.60,7.90,0.000000,0.000000,0.00,0,0,61.69,N/A$
-0.43,34.79,8.24,0.01,0.10,0.02,9.92,0.03,-0.32,-48.20,63.10,7.70,0.000000,0.000000,0.00,0,0,61.61,N/A$
-0.51,34.78,8.24,0.04,0.08,0.00,9.46,-0.30,-0.43,-46.50,61.90,9.40,0.000000,0.000000,0.00,0,0,61.54,N/A$
-0.63,34.78,8.24,0.04,0.02,0.03,9.95,-0.16,-0.53,-46.10,61.60,7.60,0.000000,0.000000,0.00,0,0,61.48,N/A$
-0.58,34.77,8.23,0.04,-0.05,0.03,10.11,-0.04,-0.62,-46.60,62.10,5.90,0.000000,0.000000,0.00,0,0,61.44,N/A$
-0.55,34.76,8.24,0.05,-0.02,0.04,9.99,-0.09,-0.39,-47.10,61.90,7.20,0.000000,0.000000,0.00,0,0,61.40,N/A$
-0.61,34.76,8.24,0.06,-0.08,0.03,10.12,0.12,-0.29,-47.30,61.80,6.80,0.000000,0.000000,0.00,0,0,61.34,N/A$
-0.42,34.76,8.09,0.06,-0.02,0.03,9.98,-0.18,-0.54,-46.60,60.70,5.90,0.000000,0.000000,0.00,0,0,61.32,N/A$
-0.30,34.76,8.04,0.05,-0.16,0.04,10.25,0.46,0.00,-56.30,57.60,-3.10,0.000000,0.000000,0.00,0,0,61.31,N/A$
29.43,32.63,7.35,0.04,-0.02,0.03,9.92,-0.24,-0.24,-56.00,56.80,-1.00,0.000000,0.000000,0.00,0,0,61.23,N/A$
28.50,32.70,7.33,0.05,0.00,0.02,9.78,-0.09,-0.17,-58.20,56.40,0.40,0.000000,0.000000,0.00,0,0,61.23,N/A$
26.58,32.84,7.98,0.05,0.00,0.02,9.91,-0.23,-0.60,-48.80,62.50,7.80,0.000000,0.000000,0.00,0,0,61.24,N/A$
25.76,32.91,7.33,0.03,0.04,0.03,9.97,-0.26,-0.39,-58.20,55.20,-1.40,0.000000,0.000000,0.00,0,0,61.25,N/A$
27.20,32.80,7.35,0.06,-0.20,0.07,11.11,-0.56,-0.44,-56.60,57.50,0.00,0.000000,0.000000,0.00,0,0,61.24,N/A$
27.15,32.82,7.35,0.04,-0.05,0.05,9.93,-0.20,-0.19,-57.50,57.30,-0.90,0.000000,0.000000,0.00,0,0,61.27,N/A$
27.11,32.80,8.23,0.05,0.06,0.00,10.15,0.10,-0.17,-48.50,60.80,6.30,0.000000,0.000000,0.00,0,0,61.29,N/A$
-0.31,34.80,8.24,0.05,0.24,-0.00,10.22,0.39,-0.61,-48.10,61.00,7.60,0.000000,0.000000,0.00,0,0,61.41,N/A$
-0.40,34.79,8.24,0.04,0.00,0.03,10.01,-0.08,-0.45,-47.00,61.70,7.90,0.000000,0.000000,0.00,0,0,61.44,N/A$
-0.41,34.79,8.23,0.05,-0.07,0.04,10.23,-1.50,-1.49,-47.40,60.90,7.70,0.000000,0.000000,0.00,0,0,61.47,N/A$
-0.40,34.78,8.24,0.06,-0.00,0.03,9.82,-0.09,-0.29,-48.60,60.80,7.30,0.000000,0.000000,0.00,0,0,61.51,N/A$
-0.37,34.78,8.24,0.05,0.06,0.00,10.08,-0.13,-0.65,-48.70,60.90,7.40,0.000000,0.000000,0.00,0,0,61.58,N/A$
-0.30,34.78,8.24,0.05,-0.05,0.02,10.29,-0.39,-0.61,-49.10,60.20,7.10,0.000000,0.000000,0.00,0,0,61.62,N/A$
-0.38,34.78,8.24,0.05,0.02,0.02,9.78,-0.14,-0.45,-49.30,60.40,7.60,0.000000,0.000000,0.00,0,0,61.66,N/A$
-0.56,34.78,8.24,0.06,-0.03,0.01,9.57,-0.66,-0.44,-49.70,60.50,5.60,0.000000,0.000000,0.00,0,0,61.69,N/A$
-0.53,34.78,8.24,0.06,0.00,0.03,9.84,-0.06,-0.40,-47.60,60.80,8.00,0.000000,0.000000,0.00,0,0,61.70,N/A$
-0.45,34.78,8.24,0.05,0.02,0.02,10.14,-0.16,-0.59,-49.00,61.60,8.80,0.000000,0.000000,0.00,0,0,61.73,N/A$
-0.34,34.78,8.24,0.08,0.02,0.03,10.51,0.11,-0.12,-48.60,59.40,8.90,0.000000,0.000000,0.00,0,0,61.75,N/A$
-0.36,34.78,7.99,0.05,-0.01,0.04,9.94,-0.12,-0.41,-58.20,55.80,-1.10,0.000000,0.000000,0.00,0,0,61.76,N/A$
-0.03,34.78,7.31,0.05,-0.01,0.04,10.15,-0.23,-0.29,-58.50,55.30,-3.20,0.000000,0.000000,0.00,0,0,61.74,N/A$
30.75,32.54,7.35,0.05,0.01,0.03,10.06,-0.16,-0.46,-58.90,55.20,-0.80,0.000000,0.000000,0.00,0,0,61.62,N/A$
31.07,32.54,7.35,0.05,0.00,0.03,9.97,-0.13,-0.48,-60.10,56.40,-1.50,0.000000,0.000000,0.00,0,0,61.62,N/A$
31.61,32.50,7.98,0.03,-0.05,0.04,10.65,-0.77,-0.80,-58.00,54.70,0.20,0.000000,0.000000,0.00,0,0,61.64,N/A$
22.58,33.14,7.31,0.05,-0.03,0.04,9.92,-0.06,-0.45,-57.70,56.20,-0.40,0.000000,0.000000,0.00,0,0,61.63,N/A$
31.12,32.54,7.31,0.05,-0.04,0.04,10.03,-0.21,-0.67,-59.70,54.40,0.10,0.000000,0.000000,0.00,0,0,61.55,N/A$
31.92,32.50,7.34,0.05,-0.07,0.07,9.79,0.46,-0.16,-60.50,56.10,1.50,0.000000,0.000000,0.00,0,0,61.47,N/A$
31.32,32.49,8.23,0.05,0.02,0.03,10.09,-0.14,-0.54,-50.60,60.20,9.70,0.000000,0.000000,0.00,0,0,61.49,N/A$
-0.56,34.80,8.23,0.06,0.00,0.02,10.01,-0.02,-0.43,-50.90,59.40,10.30,0.000000,0.000000,0.00,0,0,61.61,N/A$
-0.57,34.79,8.24,0.07,-0.04,0.01,10.52,0.27,-0.11,-50.00,60.10,8.90,0.000000,0.000000,0.00,0,0,61.53,N/A$
-0.33,34.79,8.24,0.05,0.01,0.02,9.67,-0.15,-0.40,-50.20,59.50,8.10,0.000000,0.000000,0.00,0,0,61.61,N/A$
-0.37,34.78,8.24,0.06,-0.00,0.01,9.91,-0.08,-0.40,-51.20,60.30,9.40,0.000000,0.000000,0.00,0,0,61.47,N/A$
-0.53,34.78,8.24,0.06,0.00,0.02,10.08,-0.25,-0.35,-45.50,62.60,5.80,0.000000,0.000000,0.00,0,0,61.53,N/A$
-0.27,34.78,8.24,0.04,-0.03,0.02,9.94,0.01,-0.39,-35.90,66.80,2.30,0.000000,0.000000,0.00,0,0,61.60,N/A$
-0.47,34.79,8.24,0.05,-0.02,0.03,10.07,0.03,-0.01,-30.40,69.80,-0.10,0.000000,0.000000,0.00,0,0,61.57,N/A$
-0.26,34.79,8.24,0.06,0.06,-0.02,9.90,-0.02,-0.19,-30.20,69.40,1.80,0.000000,0.000000,0.00,0,0,61.58,N/A$
-0.24,34.78,8.24,-0.06,-0.22,0.01,9.84,-0.24,-0.47,-30.30,69.60,-0.90,0.000000,0.000000,0.00,0,0,61.58,N/A$
-0.50,34.79,8.24,-0.20,0.03,-0.27,9.62,-0.72,0.63,-32.30,63.20,0.10,0.000000,0.000000,0.00,0,0,61.58,N/A$
-0.39,34.79,8.09,2.72,-0.03,-0.14,10.47,-1.30,0.78,-30.90,56.00,13.80,0.000000,0.000000,0.00,0,0,61.61,N/A$
-0.48,34.79,7.98,-1.60,0.62,-0.69,9.14,-0.52,-3.36,-34.50,51.40,-6.50,0.000000,0.000000,0.00,0,0,61.63,N/A$
63.61,30.26,7.34,-1.49,0.10,0.04,10.17,0.92,-0.05,-33.30,49.70,-17.80,0.000000,0.000000,0.00,0,0,61.52,N/A$
81.72,28.96,7.34,-3.83,1.92,2.92,16.25,-3.80,-0.26,-38.80,49.00,-28.00,0.000000,0.000000,0.00,0,0,61.51,N/A$
89.94,28.42,8.00,-1.74,-0.45,3.63,7.72,-5.35,1.27,-41.10,71.80,-29.80,0.000000,0.000000,0.00,0,0,61.55,N/A$
97.24,27.87,7.34,0.27,0.18,1.51,0.77,-3.92,1.99,-48.80,71.70,-33.40,0.000000,0.000000,0.00,0,0,61.45,N/A$
75.47,29.48,7.35,-0.27,-0.93,-1.15,3.53,-3.87,-2.32,-49.00,73.20,-30.10,0.000000,0.000000,0.00,0,0,61.56,N/A$
71.51,29.75,7.33,-1.65,-3.82,0.05,7.43,-5.00,-8.12,-50.70,69.40,-23.60,0.000000,0.000000,0.00,0,0,61.63,N/A$
69.39,29.93,8.23,-2.25,-1.74,-0.51,7.34,-3.60,-7.88,-32.70,65.20,-5.70,0.000000,0.000000,0.00,0,0,61.64,N/A$
36.31,32.20,8.24,-1.36,-4.47,1.53,0.20,-4.15,-4.61,-25.30,62.30,-4.40,0.000000,0.000000,0.00,0,0,61.70,N/A$
-0.25,34.90,8.23,-0.20,-0.59,-0.56,-1.29,-2.49,-2.56,-21.30,62.10,0.80,0.000000,0.000000,0.00,0,0,61.89,N/A$
-0.36,34.84,8.24,0.35,-1.43,-0.31,2.00,-1.67,-14.35,-21.50,62.60,2.80,0.000000,0.000000,0.00,0,0,62.02,N/A$
-0.41,34.84,8.24,0.09,-0.03,0.07,-0.28,-4.38,-8.87,-20.40,63.70,5.90,0.000000,0.000000,0.00,0,0,62.07,N/A$
-0.56,34.83,8.24,0.33,-0.02,0.01,-0.37,-2.92,-9.32,-22.40,63.10,7.50,0.000000,0.000000,0.00,0,0,62.11,N/A$
-0.33,34.83,8.24,-0.52,0.03,0.07,-0.51,-2.20,-10.98,-21.80,65.80,7.10,0.000000,0.000000,0.00,0,0,62.15,N/A$
-0.42,34.82,8.24,0.08,0.01,0.02,-0.28,-2.98,-9.40,-22.00,63.00,6.50,0.000000,0.000000,0.00,0,0,62.18,N/A$
-0.48,34.82,8.24,0.05,0.01,0.02,-0.49,-3.41,-9.28,-21.80,65.20,6.00,0.000000,0.000000,0.00,0,0,62.24,N/A$
-0.46,34.82,8.24,0.12,0.00,0.01,-0.23,-2.98,-9.59,-21.20,64.50,5.90,0.000000,0.000000,0.00,0,0,62.23,N/A$
-0.22,34.82,8.24,-0.07,0.01,0.03,-0.56,-3.08,-9.34,-21.50,64.80,6.20,0.000000,0.000000,0.00,0,0,62.24,N/A$
-0.32,34.82,8.24,0.18,0.01,0.01,-0.23,-2.78,-9.69,-21.60,63.80,6.30,0.000000,0.000000,0.00,0,0,62.24,N/A$
-0.26,34.82,7.98,-0.02,0.02,0.03,-0.55,-3.58,-9.21,-28.10,62.00,1.80,0.000000,0.000000,0.00,0,0,62.22,N/A$
19.65,33.44,7.28,0.27,0.00,0.02,-0.25,-2.71,-9.72,-32.10,58.40,-2.30,0.000000,0.000000,0.00,0,0,62.15,N/A$
40.83,31.87,7.33,0.25,-0.00,0.00,-0.53,-3.67,-9.13,-30.90,59.80,-2.30,0.000000,0.000000,0.00,0,0,62.10,N/A$
41.14,31.86,7.33,-0.77,0.05,0.10,1.67,-1.38,-9.90,-31.90,57.80,-0.60,0.000000,0.000000,0.00,0,0,62.10,N/A$
45.31,31.58,7.98,0.27,0.00,0.03,-0.38,-3.49,-9.31,-32.50,58.70,0.60,0.000000,0.000000,0.00,0,0,62.11,N/A$
22.29,33.29,7.34,0.09,0.02,0.05,-0.37,-2.02,-10.68,-30.70,61.50,2.30,0.000000,0.000000,0.00,0,0,62.16,N/A$
47.85,31.40,7.35,3.66,1.97,-0.74,0.14,-4.62,-11.20,-28.90,73.20,3.90,0.000000,0.000000,0.00,0,0,61.98,N/A$
53.77,31.00,7.36,-0.30,4.46,-4.47,10.53,0.51,-13.86,-34.00,76.60,-1.30,0.000000,0.000000,0.00,0,0,61.89,N/A$
59.73,30.54,8.23,-4.47,-1.82,2.47,4.50,0.12,0.10,-12.00,96.40,6.90,0.000000,0.000000,0.00,0,0,61.83,N/A$
-0.04,34.88,8.23,-2.79,-2.20,-1.86,6.52,-9.23,-9.07,-17.30,88.50,10.60,0.000000,0.000000,0.00,0,0,61.99,N/A$
-0.14,34.86,8.24,-1.14,1.37,-0.77,4.97,-6.36,-7.10,-22.10,81.60,6.80,0.000000,0.000000,0.00,0,0,61.98,N/A$
-0.38,34.84,8.23,1.27,4.42,-1.91,7.45,-6.49,-1.20,-30.70,70.10,-5.30,0.000000,0.000000,0.00,0,0,61.99,N/A$
-0.44,34.84,8.23,0.57,0.14,0.98,5.68,-6.78,-4.14,-38.00,64.90,-12.30,0.000000,0.000000,0.00,0,0,62.04,N/A$
-0.41,34.83,8.24,0.02,0.37,-0.42,6.65,-4.17,-4.16,-39.60,63.40,-18.90,0.000000,0.000000,0.00,0,0,62.06,N/A$
-0.41,34.82,8.23,-0.34,2.26,-1.19,9.79,-1.79,-1.12,-40.40,60.30,-22.50,0.000000,0.000000,0.00,0,0,62.11,N/A$
-0.39,34.82,8.23,-0.93,1.81,-1.84,9.20,-0.02,-0.96,-41.40,54.80,-30.80,0.000000,0.000000,0.00,0,0,62.10,N/A$
-0.42,34.81,8.23,0.21,0.00,0.04,9.84,-0.47,-0.34,-36.60,48.20,-35.70,0.000000,0.000000,0.00,0,0,62.11,N/A$
-0.52,34.82,8.24,0.06,0.01,0.02,9.94,0.03,-0.42,-38.60,48.90,-34.70,0.000000,0.000000,0.00,0,0,62.28,N/A$
-0.31,34.81,8.24,0.05,0.01,0.02,9.97,0.04,-0.28,-36.70,49.10,-36.10,0.000000,0.000000,0.00,0,0,62.34,N/A$
-0.22,34.80,8.09,0.04,0.16,-0.18,9.94,-0.07,-0.37,-38.10,48.50,-36.30,0.000000,0.000000,0.00,0,0,62.23,N/A$
0.02,34.80,7.97,-0.76,0.25,0.38,9.94,0.22,-0.06,-47.10,43.10,-47.80,0.000000,0.000000,0.00,0,0,62.21,N/A$
46.25,31.47,7.31,0.37,-0.36,-0.27,10.07,0.90,0.52,-49.30,42.20,-49.50,0.000000,0.000000,0.00,0,0,62.02,N/A$
45.35,31.53,7.34,0.05,-0.04,0.05,9.90,-0.04,-0.41,-48.10,40.20,-51.20,0.000000,0.000000,0.00,0,0,62.00,N/A$
44.84,31.58,7.99,0.06,0.02,0.02,9.95,0.13,-0.10,-42.30,43.30,-42.60,0.000000,0.000000,0.00,0,0,61.96,N/A$
45.05,31.51,7.35,0.05,0.01,0.03,9.92,-0.02,-0.36,-44.30,42.80,-48.10,0.000000,0.000000,0.00,0,0,61.94,N/A$
46.89,31.45,7.31,0.04,0.00,0.03,9.96,0.14,-0.21,-45.00,41.90,-48.00,0.000000,0.000000,0.00,0,0,61.90,N/A$
46.90,31.45,7.31,0.03,0.01,0.03,9.94,0.02,-0.35,-45.50,42.60,-47.70,0.000000,0.000000,0.00,0,0,61.86,N/A$
47.10,31.43,8.23,0.05,0.00,0.02,9.94,0.06,-0.33,-35.10,47.60,-37.80,0.000000,0.000000,0.00,0,0,61.86,N/A$
-0.57,34.83,8.23,0.05,0.00,0.02,9.98,0.12,-0.20,-35.80,46.40,-36.40,0.000000,0.000000,0.00,0,0,61.93,N/A$
-0.36,34.83,8.23,0.05,0.01,0.02,9.90,-0.02,-0.38,-35.60,46.90,-39.40,0.000000,0.000000,0.00,0,0,61.96,N/A$
-0.40,34.82,8.23,0.06,0.01,0.02,9.92,0.15,-0.16,-36.50,47.30,-41.80,0.000000,0.000000,0.00,0,0,61.87,N/A$
-0.40,34.81,8.23,0.05,0.00,0.02,9.93,0.00,-0.39,-34.10,47.30,-38.80,0.000000,0.000000,0.00,0,0,61.87,N/A$
-0.25,34.81,8.23,0.05,0.00,0.02,9.93,0.11,-0.24,-33.90,48.60,-40.60,0.000000,0.000000,0.00,0,0,61.72,N/A$
-0.23,34.80,8.23,0.05,0.00,0.02,9.95,0.08,-0.30,-37.10,47.70,-41.00,0.000000,0.000000,0.00,0,0,61.76,N/A$
-0.29,34.80,8.23,0.05,0.00,0.02,9.92,0.08,-0.32,-37.10,46.80,-38.40,0.000000,0.000000,0.00,0,0,61.72,N/A$
-0.16,34.80,8.23,0.05,0.01,0.02,9.99,0.11,-0.26,-35.60,48.10,-39.50,0.000000,0.000000,0.00,0,0,61.67,N/A$
-0.05,34.80,8.24,0.06,0.01,0.02,9.96,0.02,-0.39,-35.30,48.60,-38.60,0.000000,0.000000,0.00,0,0,61.69,N/A$
-0.15,34.79,8.23,0.05,0.01,0.02,9.96,0.14,-0.23,-37.00,47.70,-38.60,0.000000,0.000000,0.00,0,0,61.67,N/A$
-0.15,34.80,8.24,0.05,0.01,0.02,9.95,0.01,-0.37,-36.00,46.80,-37.80,0.000000,0.000000,0.00,0,0,61.66,N/A$
-0.29,34.80,7.98,0.04,0.00,0.02,9.95,0.15,-0.24,-44.90,43.30,-46.50,0.000000,0.000000,0.00,0,0,61.65,N/A$
44.75,31.61,7.31,0.03,0.00,0.03,9.87,0.04,-0.34,-44.80,45.00,-46.70,0.000000,0.000000,0.00,0,0,61.45,N/A$
44.30,31.65,7.31,0.03,0.00,0.03,9.94,0.11,-0.29,-45.60,41.90,-49.60,0.000000,0.000000,0.00,0,0,61.39,N/A$
43.75,31.71,7.31,0.04,0.00,0.03,9.99,0.06,-0.36,-45.90,43.50,-45.40,0.000000,0.000000,0.00,0,0,61.30,N/A$
43.42,31.68,7.98,0.09,-0.05,0.09,9.61,-1.09,-0.57,-45.90,42.80,-47.10,0.000000,0.000000,0.00,0,0,61.22,N/A$
44.75,31.58,7.31,0.54,0.02,0.03,10.00,-1.04,-0.54,-44.20,43.80,-47.60,0.000000,0.000000,0.00,0,0,61.15,N/A$
51.26,31.15,7.35,0.66,0.05,0.28,10.00,-1.21,-2.33,-43.30,43.40,-43.50,0.000000,0.000000,0.00,0,0,61.13,N/A$
68.18,29.93,7.35,0.79,0.06,-0.06,9.83,-0.03,-1.20,-43.70,44.00,-41.20,0.000000,0.000000,0.00,0,0,61.10,N/A$
67.63,29.77,8.23,-0.00,0.00,0.04,9.36,0.40,-0.75,-37.70,50.00,-30.60,0.000000,0.000000,0.00,0,0,61.16,N/A$
-0.38,34.77,8.23,0.11,0.00,0.00,9.45,-1.77,2.29,-37.50,52.20,-28.90,0.000000,0.000000,0.00,0,0,61.42,N/A$
-0.35,34.75,8.23,0.04,0.01,0.01,9.99,-0.04,-0.28,-38.50,52.80,-29.60,0.000000,0.000000,0.00,0,0,61.48,N/A$
-0.02,34.72,8.23,0.04,0.00,0.02,9.98,0.10,-0.30,-38.70,53.10,-29.30,0.000000,0.000000,0.00,0,0,61.51,N/A$
-0.24,34.71,8.23,0.04,0.02,0.01,9.38,-0.03,-0.09,-37.90,52.70,-29.60,0.000000,0.000000,0.00,0,0,61.51,N/A$
-0.01,34.70,8.24,0.04,0.00,0.02,10.45,0.04,-0.31,-38.60,51.20,-27.90,0.000000,0.000000,0.00,0,0,61.49,N/A$
-0.03,34.69,8.23,0.05,0.01,0.02,9.75,0.02,-0.33,-38.30,53.60,-26.20,0.000000,0.000000,0.00,0,0,61.45,N/A$
-0.21,34.68,8.23,0.05,0.00,0.02,9.93,0.04,-0.35,-39.10,52.20,-28.50,0.000000,0.000000,0.00,0,0,61.41,N/A$
-0.04,34.68,8.23,0.05,0.00,0.02,10.02,0.06,-0.28,-37.30,53.70,-29.80,0.000000,0.000000,0.00,0,0,61.39,N/A$
-0.27,34.68,8.23,0.05,0.00,0.02,9.82,-0.00,-0.42,-38.10,52.60,-30.60,0.000000,0.000000,0.00,0,0,61.34,N/A$
-0.47,34.68,8.23,0.04,0.00,0.02,9.92,0.09,-0.31,-38.20,53.30,-29.90,0.000000,0.000000,0.00,0,0,61.27,N/A$
-0.23,34.65,8.09,0.05,0.01,0.01,9.90,0.08,-0.29,-37.70,51.60,-30.60,0.000000,0.000000,0.00,0,0,61.19,N/A$
2.11,34.55,7.99,0.02,-0.00,0.03,9.95,0.01,-0.40,-44.80,45.40,-37.90,0.000000,0.000000,0.00,0,0,61.16,N/A$
47.26,31.22,7.33,0.03,0.00,0.03,9.96,0.10,-0.31,-47.30,47.30,-37.60,0.000000,0.000000,0.00,0,0,60.99,N/A$
48.13,31.14,7.34,0.02,0.00,0.03,9.88,0.03,-0.38,-47.50,46.60,-38.70,0.000000,0.000000,0.00,0,0,60.95,N/A$
48.86,31.10,7.99,0.04,0.00,0.02,9.96,0.07,-0.32,-39.20,50.50,-32.90,0.000000,0.000000,0.00,0,0,60.94,N/A$
20.35,33.20,7.33,0.03,0.00,0.02,9.94,0.03,-0.37,-47.30,46.20,-39.50,0.000000,0.000000,0.00,0,0,61.01,N/A$
48.04,31.15,7.31,0.03,0.00,0.03,9.89,0.09,-0.33,-47.60,47.70,-38.50,0.000000,0.000000,0.00,0,0,60.90,N/A$
48.46,31.13,7.35,0.03,0.00,0.03,9.96,0.08,-0.33,-47.70,45.90,-38.70,0.000000,0.000000,0.00,0,0,60.87,N/A$
49.06,31.09,8.23,0.04,0.00,0.02,9.93,0.05,-0.33,-38.30,50.60,-29.90,0.000000,0.000000,0.00,0,0,60.84,N/A$
-0.30,34.64,8.23,0.04,0.00,0.02,9.90,0.08,-0.32,-38.00,52.40,-29.40,0.000000,0.000000,0.00,0,0,60.98,N/A$
-0.41,34.62,8.23,0.04,0.00,0.02,9.93,0.04,-0.36,-38.30,51.90,-28.20,0.000000,0.000000,0.00,0,0,60.95,N/A$
-0.38,34.60,8.23,0.04,0.00,0.02,9.93,0.08,-0.31,-37.70,52.40,-28.80,0.000000,0.000000,0.00,0,0,60.91,N/A$
-0.60,34.59,8.23,0.04,0.00,0.02,9.97,0.06,-0.33,-38.60,52.10,-29.10,0.000000,0.000000,0.00,0,0,60.88,N/A$
-0.38,34.58,8.23,0.04,0.00,0.02,9.93,0.06,-0.39,-37.70,51.70,-29.80,0.000000,0.000000,0.00,0,0,60.87,N/A$
-0.38,34.57,8.23,0.04,0.01,0.02,9.93,0.06,-0.29,-39.20,52.10,-28.30,0.000000,0.000000,0.00,0,0,60.87,N/A$
-0.44,34.56,8.23,0.04,0.00,0.02,9.96,0.05,-0.36,-37.40,52.20,-30.40,0.000000,0.000000,0.00,0,0,60.88,N/A$
-0.31,34.55,8.23,0.04,0.00,0.02,9.91,0.03,-0.30,-37.30,52.60,-28.60,0.000000,0.000000,0.00,0,0,60.95,N/A$
-0.09,34.54,8.23,0.04,0.00,0.02,9.96,0.07,-0.33,-38.40,52.30,-28.10,0.000000,0.000000,0.00,0,0,60.90,N/A$
-0.28,34.53,8.23,0.04,0.01,0.02,9.96,0.07,-0.36,-37.20,51.70,-27.50,0.000000,0.000000,0.00,0,0,60.91,N/A$
-0.26,34.54,8.23,0.04,0.00,0.02,9.94,0.06,-0.30,-38.40,50.90,-28.70,0.000000,0.000000,0.00,0,0,61.03,N/A$
-0.28,34.53,7.99,0.03,0.00,0.02,9.92,0.02,-0.34,-47.00,46.50,-39.80,0.000000,0.000000,0.00,0,0,61.05,N/A$
-0.21,34.53,7.32,0.02,-0.00,0.03,9.92,0.05,-0.36,-49.00,47.60,-37.60,0.000000,0.000000,0.00,0,0,61.08,N/A$
49.19,31.00,7.31,0.02,0.06,-0.03,9.95,-0.34,-0.63,-47.90,47.40,-38.50,0.000000,0.000000,0.00,0,0,61.03,N/A$
49.61,30.97,7.32,-1.37,-0.25,-0.33,9.65,1.18,-0.31,-46.30,45.00,-40.70,0.000000,0.000000,0.00,0,0,60.94,N/A$
50.17,30.97,7.98,-0.63,0.08,0.43,9.65,0.97,-0.79,-47.50,43.00,-43.90,0.000000,0.000000,0.00,0,0,60.96,N/A$
49.55,30.97,7.31,0.02,-0.02,0.05,10.04,-0.03,-0.45,-48.50,47.30,-47.20,0.000000,0.000000,0.00,0,0,61.03,N/A$
48.64,31.09,7.34,0.03,0.01,0.02,9.85,0.13,-0.19,-48.60,45.80,-43.70,0.000000,0.000000,0.00,0,0,60.89,N/A$
49.21,31.03,7.34,0.03,0.00,0.03,10.01,0.09,-0.25,-49.90,46.40,-45.60,0.000000,0.000000,0.00,0,0,60.98,N/A$
10.09,33.81,8.23,0.05,0.01,0.01,9.99,0.07,-0.23,-36.90,51.20,-35.80,0.000000,0.000000,0.00,0,0,61.17,N/A$
-0.25,34.57,8.24,0.04,-0.00,0.02,9.82,-0.02,-0.44,-40.70,50.40,-34.70,0.000000,0.000000,0.00,0,0,61.19,N/A$
-0.25,34.56,8.23,-0.01,0.02,0.05,9.73,-0.22,-0.29,-41.10,51.00,-37.50,0.000000,0.000000,0.00,0,0,61.19,N/A$
-0.46,34.54,8.23,0.04,0.04,0.01,9.98,0.03,-0.40,-40.40,50.60,-36.00,0.000000,0.000000,0.00,0,0,61.19,N/A$
-0.49,34.53,8.23,0.05,0.07,0.02,10.00,0.06,-0.24,-39.50,49.80,-37.60,0.000000,0.000000,0.00,0,0,61.20,N/A$
-0.39,34.51,8.24,0.10,0.34,0.36,9.21,-0.66,0.21,-39.90,49.70,-37.00,0.000000,0.000000,0.00,0,0,61.19,N/A$
-0.46,34.49,8.23,0.04,0.11,-0.10,9.79,1.06,0.83,-40.40,52.20,-37.10,0.000000,0.000000,0.00,0,0,61.22,N/A$
-0.43,34.48,8.23,0.05,-0.04,0.03,9.97,0.03,-0.07,-39.80,50.60,-38.80,0.000000,0.000000,0.00,0,0,61.23,N/A$
-0.35,34.46,8.22,0.06,0.22,0.06,10.03,-0.07,-0.25,-39.20,51.40,-35.80,0.000000,0.000000,0.00,0,0,61.25,N/A$
-0.32,34.45,8.23,-1.17,0.31,-1.08,10.18,-4.04,-4.12,-40.20,49.60,-44.10,0.000000,0.000000,0.00,0,0,61.27,N/A$
-0.33,34.44,8.23,-0.06,-0.03,-0.00,10.27,-0.12,-0.97,-37.10,51.70,-52.90,0.000000,0.000000,0.00,0,0,61.31,N/A$
-0.32,34.43,7.96,4.18,-4.47,2.55,15.23,-3.98,-1.82,-38.70,54.40,-34.50,0.000000,0.000000,0.00,0,0,61.43,N/A$
21.73,32.89,7.93,2.46,-2.61,4.25,0.53,-2.16,-0.27,-46.00,72.50,-18.90,0.000000,0.000000,0.00,0,0,61.42,N/A$
26.33,32.55,7.30,-1.03,-1.00,-0.12,-0.66,-3.24,-3.35,-47.10,75.80,-14.10,0.000000,0.000000,0.00,0,0,61.46,N/A$
33.78,32.04,7.29,-4.29,0.08,-0.00,0.26,-4.47,-10.82,-49.60,62.10,-19.40,0.000000,0.000000,0.00,0,0,61.48,N/A$
41.57,31.48,7.93,1.29,-3.92,-1.22,4.72,-0.74,-12.63,-45.60,51.40,-28.10,0.000000,0.000000,0.00,0,0,61.45,N/A$
20.82,32.99,7.32,-0.02,-3.09,0.23,1.12,1.15,-5.22,-46.00,51.60,-29.30,0.000000,0.000000,0.00,0,0,61.53,N/A$
31.00,32.25,7.31,0.47,-0.02,0.01,0.18,-0.58,-8.91,-45.20,50.10,-30.90,0.000000,0.000000,0.00,0,0,61.50,N/A$
27.27,32.53,7.31,2.44,-0.06,-0.22,-4.19,-3.34,-9.05,-45.70,55.20,-23.00,0.000000,0.000000,0.00,0,0,61.51,N/A$
18.84,33.11,8.22,1.56,-0.12,-0.23,-0.03,-0.42,-7.21,-33.00,60.70,-8.50,0.000000,0.000000,0.00,0,0,61.57,N/A$
-0.33,34.50,8.23,-0.17,0.00,0.10,3.90,-2.67,-9.59,-35.20,58.50,-3.80,0.000000,0.000000,0.00,0,0,61.68,N/A$
-0.26,34.49,8.23,0.82,-0.02,0.06,2.14,-2.28,-9.97,-33.40,62.80,2.20,0.000000,0.000000,0.00,0,0,61.71,N/A$
-0.29,34.49,8.23,0.58,-0.00,0.01,0.25,-3.53,-8.89,-34.50,66.00,5.40,0.000000,0.000000,0.00,0,0,61.72,N/A$
-0.31,34.49,8.23,0.83,-0.01,0.01,0.27,-2.22,-9.93,-34.90,65.80,4.80,0.000000,0.000000,0.00,0,0,61.74,N/A$
-0.16,34.49,8.23,0.13,0.02,0.02,0.10,-3.39,-9.33,-33.30,70.90,7.50,0.000000,0.000000,0.00,0,0,61.74,N/A$
-0.08,34.48,8.23,0.50,-0.01,0.02,0.47,-2.69,-9.40,-34.00,71.00,8.50,0.000000,0.000000,0.00,0,0,61.74,N/A$
-0.43,34.49,8.23,1.29,-0.02,0.01,0.26,-3.24,-9.88,-34.60,74.20,10.50,0.000000,0.000000,0.00,0,0,61.71,N/A$
-0.33,34.48,8.23,0.96,0.00,-0.00,0.07,-6.46,-4.69,-33.30,82.70,12.80,0.000000,0.000000,0.00,0,0,61.70,N/A$
-0.22,34.48,8.23,-0.39,0.02,0.03,0.27,-4.88,-8.71,-32.90,82.60,10.90,0.000000,0.000000,0.00,0,0,61.67,N/A$
-0.26,34.47,8.23,-0.42,0.02,0.02,0.18,-3.66,-9.56,-32.90,77.20,10.20,0.000000,0.000000,0.00,0,0,61.64,N/A$
-0.33,34.47,8.23,0.48,-0.00,0.02,0.15,-4.80,-8.68,-33.60,81.00,13.00,0.000000,0.000000,0.00,0,0,61.58,N/A$
-0.30,34.46,7.98,0.11,-0.00,0.02,0.24,-5.25,-8.58,-43.30,78.90,2.20,0.000000,0.000000,0.00,0,0,61.65,N/A$
0.07,34.46,7.31,1.20,-0.02,-0.00,0.02,-6.81,-7.31,-43.80,81.70,6.40,0.000000,0.000000,0.00,0,0,61.43,N/A$
32.28,32.10,7.31,0.35,0.00,0.03,0.26,-5.78,-7.81,-42.30,84.90,4.50,0.000000,0.000000,0.00,0,0,61.41,N/A$
31.34,32.17,7.32,-4.18,0.06,0.16,1.22,-4.74,-12.60,-42.40,76.60,2.20,0.000000,0.000000,0.00,0,0,61.46,N/A$
32.13,32.12,7.95,0.77,-0.07,0.03,-0.18,-4.25,-9.99,-41.60,76.10,2.80,0.000000,0.000000,0.00,0,0,61.46,N/A$
33.24,32.01,7.30,0.30,-0.00,0.02,0.35,-4.49,-8.89,-42.80,78.40,4.50,0.000000,0.000000,0.00,0,0,61.38,N/A$
34.76,31.93,7.30,-0.12,0.01,0.03,0.03,-5.34,-8.57,-42.70,77.80,6.90,0.000000,0.000000,0.00,0,0,61.40,N/A$
34.56,31.95,7.32,-2.29,0.06,0.04,0.12,-5.44,-7.91,-42.80,75.50,1.30,0.000000,0.000000,0.00,0,0,61.25,N/A$
31.46,32.15,8.22,-2.12,0.08,0.03,0.22,-2.19,-9.79,-33.80,67.60,4.90,0.000000,0.000000,0.00,0,0,61.35,N/A$
14.19,33.38,8.22,0.21,0.00,0.02,0.28,-1.39,-10.16,-34.90,61.90,3.60,0.000000,0.000000,0.00,0,0,61.41,N/A$
-0.10,34.43,8.22,0.52,-0.00,0.02,0.21,-2.23,-9.58,-35.10,67.20,4.60,0.000000,0.000000,0.00,0,0,61.37,N/A$
-0.35,34.41,8.23,-0.03,0.01,0.02,0.19,-2.90,-9.46,-34.40,68.30,5.80,0.000000,0.000000,0.00,0,0,61.41,N/A$
-0.14,34.40,8.23,-0.35,0.02,0.02,0.26,-1.98,-9.94,-34.40,65.90,4.80,0.000000,0.000000,0.00,0,0,61.41,N/A$
0.05,34.40,8.23,-1.14,0.04,0.02,0.12,-2.43,-9.41,-35.10,60.10,3.30,0.000000,0.000000,0.00,0,0,61.42,N/A$
0.04,34.39,8.23,-0.25,0.02,-0.00,-0.16,-2.14,-9.13,-34.40,59.30,1.20,0.000000,0.000000,0.00,0,0,61.43,N/A$
-0.15,34.39,8.23,-0.30,0.02,0.01,0.18,0.28,-10.11,-35.00,55.80,-1.90,0.000000,0.000000,0.00,0,0,61.41,N/A$
-0.02,34.39,8.23,0.73,-0.00,0.00,0.24,0.36,-10.18,-35.20,55.00,-1.70,0.000000,0.000000,0.00,0,0,61.39,N/A$
-0.08,34.38,8.23,-0.18,-0.00,-0.21,0.46,0.07,-10.07,-33.30,57.10,0.20,0.000000,0.000000,0.00,0,0,61.37,N/A$
0.09,34.38,8.23,2.34,-0.04,-0.01,0.08,-2.89,-9.19,-33.40,64.00,4.30,0.000000,0.000000,0.00,0,0,61.35,N/A$
-0.19,34.37,8.08,1.23,0.05,0.28,-0.45,-3.47,-7.24,-28.20,75.30,10.90,0.000000,0.000000,0.00,0,0,61.33,N/A$
-0.18,34.37,7.94,-0.19,-0.00,0.02,0.31,-4.10,-8.72,-37.40,69.00,4.20,0.000000,0.000000,0.00,0,0,61.30,N/A$
29.48,32.23,7.30,-4.47,0.07,0.10,-0.39,1.23,-12.22,-41.60,53.80,-4.90,0.000000,0.000000,0.00,0,0,61.28,N/A$
31.75,32.05,7.32,-0.45,0.02,0.00,0.28,-0.92,-9.66,-40.70,46.20,-14.00,0.000000,0.000000,0.00,0,0,61.18,N/A$
33.89,31.92,7.98,-1.02,0.02,0.03,0.33,0.76,-9.79,-31.00,48.80,-9.10,0.000000,0.000000,0.00,0,0,61.18,N/A$
35.77,31.77,7.33,-0.35,0.00,-0.10,0.14,0.96,-9.62,-41.00,41.30,-21.90,0.000000,0.000000,0.00,0,0,61.16,N/A$
36.26,31.74,7.30,2.30,0.01,-0.32,0.85,0.82,-10.25,-39.70,43.80,-20.60,0.000000,0.000000,0.00,0,0,61.15,N/A$
31.68,32.07,7.31,0.63,-0.00,-0.08,0.39,-0.28,-9.91,-40.00,46.10,-10.40,0.000000,0.000000,0.00,0,0,61.17,N/A$
28.28,32.27,8.22,-0.06,0.02,0.02,0.15,-0.35,-10.03,-26.60,51.60,-3.40,0.000000,0.000000,0.00,0,0,61.18,N/A$
-0.30,34.37,8.22,0.05,0.07,0.08,-0.44,0.87,-10.78,-28.30,52.20,-3.80,0.000000,0.000000,0.00,0,0,61.27,N/A$
-0.28,34.36,8.23,-0.17,0.05,0.09,-0.93,-1.68,-9.74,-28.00,54.90,1.50,0.000000,0.000000,0.00,0,0,61.27,N/A$
-0.24,34.35,8.23,-0.27,0.01,0.03,0.27,-0.78,-9.93,-27.20,53.80,-2.70,0.000000,0.000000,0.00,0,0,61.28,N/A$
-0.27,34.35,8.23,-0.44,-0.92,-0.33,0.89,-0.63,-13.44,-27.10,53.80,0.50,0.000000,0.000000,0.00,0,0,61.30,N/A$
-0.24,34.35,8.23,0.08,0.23,-0.08,-0.26,-0.41,-14.76,-18.50,52.90,-8.10,0.000000,0.000000,0.00,0,0,61.36,N/A$
-0.21,34.35,8.23,-0.62,0.47,-0.94,-0.39,-2.57,-9.72,-8.10,56.10,-15.80,0.000000,0.000000,0.00,0,0,61.44,N/A$
-0.02,34.35,8.23,-0.03,0.54,-1.40,0.22,-1.72,-6.65,-3.60,57.50,-20.00,0.000000,0.000000,0.00,0,0,61.51,N/A$
-0.22,34.35,8.23,0.86,0.41,-1.76,-0.41,-0.11,-6.93,3.20,59.20,-23.90,0.000000,0.000000,0.00,0,0,61.57,N/A$
-0.00,34.35,8.23,1.28,0.02,-1.57,0.25,-0.16,-8.15,9.50,63.70,-20.60,0.000000,0.000000,0.00,0,0,61.63,N/A$
-0.06,34.35,8.23,1.35,-0.84,-1.05,-0.91,-1.53,-9.03,16.20,69.00,-17.30,0.000000,0.000000,0.00,0,0,61.68,N/A$
-0.08,34.35,8.23,0.59,-1.42,-1.40,2.73,-0.22,-10.18,20.60,74.80,-18.40,0.000000,0.000000,0.00,0,0,61.75,N/A$
-0.03,34.34,7.93,0.21,-0.56,-0.51,-1.51,-0.64,-8.23,17.60,72.30,-27.60,0.000000,0.000000,0.00,0,0,61.84,N/A$
0.70,34.35,7.27,-0.40,0.22,0.19,-1.56,-3.68,-10.08,17.00,75.90,-29.40,0.000000,0.000000,0.00,0,0,61.93,N/A$
33.52,31.96,7.28,0.45,-0.00,-0.89,-1.13,-3.79,-8.73,16.90,75.30,-30.50,0.000000,0.000000,0.00,0,0,61.94,N/A$
43.43,31.25,7.30,0.71,-0.05,-0.93,-1.18,-2.38,-9.40,19.60,80.90,-32.10,0.000000,0.000000,0.00,0,0,62.02,N/A$
35.35,31.85,7.93,0.34,-0.17,-0.40,-0.01,-3.24,-9.60,22.60,85.10,-27.80,0.000000,0.000000,0.00,0,0,62.16,N/A$
21.70,32.85,7.30,-0.47,-0.55,-0.96,-1.23,-2.23,-10.43,24.10,86.60,-27.70,0.000000,0.000000,0.00,0,0,62.34,N/A$
36.00,31.81,7.31,-1.35,-1.85,-1.53,-3.21,-4.07,-7.87,25.60,88.60,-31.10,0.000000,0.000000,0.00,0,0,62.34,N/A$
37.31,31.75,7.41,1.93,-0.01,0.37,-1.59,-4.94,-7.47,25.70,90.50,-32.60,0.000000,0.000000,0.00,0,0,62.44,N/A$
39.33,31.59,8.22,1.60,-0.44,-0.07,1.18,-5.18,-9.60,37.40,99.20,-25.00,0.000000,0.000000,0.00,0,0,62.37,N/A$
0.13,34.42,8.22,0.89,-0.22,0.26,-0.80,-7.79,-5.73,38.80,100.00,-26.00,0.000000,0.000000,0.00,0,0,62.56,N/A$
-0.11,34.42,8.22,0.47,-0.31,-0.57,-2.51,-6.75,-7.45,39.40,100.30,-26.00,0.000000,0.000000,0.00,0,0,62.60,N/A$
-0.13,34.41,8.22,0.61,-0.25,-1.05,-0.40,-7.37,-6.87,40.70,105.10,-27.90,0.000000,0.000000,0.00,0,0,62.72,N/A$
-0.02,34.39,8.22,-1.00,0.16,-0.04,-1.33,-7.16,-6.58,40.30,104.80,-28.40,0.000000,0.000000,0.00,0,0,62.80,N/A$
-0.09,34.39,8.22,1.13,-0.31,0.07,1.17,-6.98,-5.56,39.90,105.10,-29.60,0.000000,0.000000,0.00,0,0,62.68,N/A$
-0.30,34.38,8.22,-0.12,-0.09,0.07,-0.78,-8.07,-5.35,40.50,107.10,-29.80,0.000000,0.000000,0.00,0,0,62.76,N/A$
-0.10,34.38,8.22,-0.87,-0.17,-0.25,-4.53,-7.02,-6.89,40.50,105.90,-29.30,0.000000,0.000000,0.00,0,0,62.73,N/A$
-0.10,34.38,8.23,0.17,-0.65,-0.21,0.40,-6.65,-6.96,40.40,107.00,-32.40,0.000000,0.000000,0.00,0,0,62.86,N/A$
-0.06,34.38,8.23,1.26,-1.34,-2.20,-0.10,-3.75,-5.55,42.30,112.30,-33.40,0.000000,0.000000,0.00,0,0,62.91,N/A$
0.10,34.38,8.23,1.34,-1.99,-3.17,4.01,-10.65,-4.27,37.70,124.10,-41.80,0.000000,0.000000,0.00,0,0,62.96,N/A$
-0.27,34.39,7.98,0.93,-1.40,-1.23,2.30,-10.62,-2.46,31.00,130.10,-52.60,0.000000,0.000000,0.00,0,0,63.02,N/A$
-0.22,34.39,7.95,0.76,-1.34,-0.34,1.71,-7.36,-5.54,19.30,125.50,-66.00,0.000000,0.000000,0.00,0,0,63.12,N/A$
32.45,32.04,7.31,0.81,-1.29,-1.38,1.69,-14.05,-0.85,11.30,127.40,-74.80,0.000000,0.000000,0.00,0,0,63.04,N/A$
34.41,31.91,7.33,2.37,-2.35,-0.53,3.13,-8.16,-2.59,5.60,121.20,-80.90,0.000000,0.000000,0.00,0,0,63.13,N/A$
33.03,32.03,7.98,2.44,-3.19,0.75,2.46,-5.39,-2.44,1.10,113.20,-82.00,0.000000,0.000000,0.00,0,0,63.08,N/A$
43.68,31.26,7.31,-1.19,-3.01,0.70,1.76,-7.02,2.90,-16.80,102.00,-84.60,0.000000,0.000000,0.00,0,0,63.02,N/A$
47.28,31.01,7.31,-0.62,-1.41,1.46,4.14,-11.61,2.99,-27.00,104.60,-77.90,0.000000,0.000000,0.00,0,0,63.00,N/A$
52.17,30.68,7.31,-2.53,1.19,2.20,3.73,-12.39,1.15,-25.90,111.70,-76.80,0.000000,0.000000,0.00,0,0,62.90,N/A$
55.51,30.43,8.21,-2.47,0.97,1.40,0.13,-12.30,-4.70,-5.90,127.40,-66.70,0.000000,0.000000,0.00,0,0,63.00,N/A$
52.33,30.54,8.22,-0.61,-0.02,0.39,-1.52,-12.95,-7.12,-3.20,133.60,-64.70,0.000000,0.000000,0.00,0,0,63.14,N/A$
-0.20,34.43,8.22,-2.61,0.40,0.94,-0.87,-5.08,-1.89,0.50,136.30,-58.70,0.000000,0.000000,0.00,0,0,63.34,N/A$
-0.22,34.41,8.22,-3.56,2.33,0.13,-0.07,-4.29,-3.90,5.20,142.00,-51.80,0.000000,0.000000,0.00,0,0,63.37,N/A$
-0.21,34.41,8.22,1.61,2.28,0.85,-1.10,0.86,-18.59,5.80,144.00,-46.90,0.000000,0.000000,0.00,0,0,63.40,N/A$
-0.20,34.40,8.22,0.08,0.15,-0.03,-1.35,-5.01,-9.97,7.90,143.80,-41.30,0.000000,0.000000,0.00,0,0,63.43,N/A$
-0.11,34.41,8.22,-2.06,0.06,0.07,0.07,-3.98,-9.82,7.20,143.70,-38.90,0.000000,0.000000,0.00,0,0,63.46,N/A$
-0.30,34.41,8.22,-0.46,0.04,0.62,-0.16,-2.47,-10.55,7.00,143.10,-31.00,0.000000,0.000000,0.00,0,0,63.50,N/A$
-0.05,34.41,8.22,0.49,0.12,0.74,-0.63,-3.01,-9.09,10.60,143.10,-33.30,0.000000,0.000000,0.00,0,0,63.56,N/A$
-0.19,34.42,8.23,1.39,0.23,0.27,0.33,-0.86,-6.89,13.10,142.40,-39.30,0.000000,0.000000,0.00,0,0,63.63,N/A$
-0.06,34.42,8.22,0.89,0.17,-0.06,0.12,-1.53,-8.38,13.00,144.30,-41.50,0.000000,0.000000,0.00,0,0,63.73,N/A$
-0.12,34.42,8.23,0.93,-0.11,-0.31,-0.91,-2.22,-10.56,13.70,141.20,-48.30,0.000000,0.000000,0.00,0,0,63.86,N/A$
-0.23,34.42,7.97,0.41,0.35,-0.04,0.06,-1.28,-7.18,3.70,138.00,-56.40,0.000000,0.000000,0.00,0,0,63.95,N/A$
15.01,33.36,7.30,0.68,-0.35,-0.60,-0.44,-3.82,-7.96,-1.10,136.90,-56.40,0.000000,0.000000,0.00,0,0,63.96,N/A$
42.54,31.36,7.27,-0.07,0.06,-0.27,-0.82,-5.98,-11.43,-3.00,137.10,-54.00,0.000000,0.000000,0.00,0,0,63.89,N/A$
41.75,31.42,7.31,0.71,-1.30,-0.06,-0.38,-5.47,-8.52,-3.60,136.90,-54.70,0.000000,0.000000,0.00,0,0,63.93,N/A$
38.76,31.63,7.95,-0.15,-0.23,0.45,-0.17,-5.51,-9.49,-2.80,135.50,-53.10,0.000000,0.000000,0.00,0,0,64.01,N/A$
16.24,33.34,7.29,-0.18,-0.04,0.41,-0.06,-5.17,-9.22,-1.20,136.00,-49.30,0.000000,0.000000,0.00,0,0,64.14,N/A$
39.70,31.58,7.31,0.07,-0.60,0.31,0.70,-1.51,-8.83,0.80,134.10,-48.10,0.000000,0.000000,0.00,0,0,64.08,N/A$
36.87,31.80,7.31,0.07,-0.13,0.15,-1.83,-3.16,-9.22,0.90,135.20,-48.00,0.000000,0.000000,0.00,0,0,64.14,N/A$
37.60,31.75,8.21,0.60,1.09,0.02,-1.37,-3.00,-9.27,9.20,140.20,-39.40,0.000000,0.000000,0.00,0,0,64.15,N/A$
1.81,34.34,8.22,0.17,0.93,0.13,-1.76,-4.90,-11.54,11.50,140.50,-41.30,0.000000,0.000000,0.00,0,0,64.30,N/A$
-0.45,34.49,8.22,-0.59,0.20,0.27,-0.94,-2.73,-7.72,10.90,141.20,-42.30,0.000000,0.000000,0.00,0,0,64.33,N/A$
-0.47,34.48,8.22,1.01,-0.42,0.23,0.49,-5.51,-8.89,11.70,140.40,-44.30,0.000000,0.000000,0.00,0,0,64.36,N/A$
-0.29,34.48,8.23,-0.15,0.03,-0.12,0.39,-5.12,-9.08,12.70,139.60,-45.10,0.000000,0.000000,0.00,0,0,64.27,N/A$
-0.33,34.48,8.22,0.78,0.03,0.15,0.41,-5.68,-8.04,12.10,140.80,-43.50,0.000000,0.000000,0.00,0,0,64.30,N/A$
-0.43,34.48,8.22,-0.03,0.02,0.10,0.99,-5.53,-8.12,13.60,139.70,-46.50,0.000000,0.000000,0.00,0,0,64.30,N/A$
-0.52,34.48,8.22,0.13,0.03,0.07,-0.26,-5.67,-8.28,13.70,139.90,-46.90,0.000000,0.000000,0.00,0,0,64.17,N/A$
-0.54,34.48,8.22,0.15,-0.03,0.01,0.15,-5.56,-8.30,13.20,139.80,-45.90,0.000000,0.000000,0.00,0,0,64.13,N/A$
-0.43,34.48,8.22,-0.17,0.20,0.10,-0.12,-4.85,-8.68,13.90,139.00,-46.60,0.000000,0.000000,0.00,0,0,64.19,N/A$
-0.31,34.47,8.22,-0.02,-0.24,-0.02,-1.55,-5.59,-7.13,12.80,139.30,-47.20,0.000000,0.000000,0.00,0,0,64.10,N/A$
-0.24,34.48,7.97,0.00,0.00,0.02,-0.66,-5.43,-8.54,13.20,140.30,-45.30,0.000000,0.000000,0.00,0,0,64.16,N/A$
-0.09,34.48,7.36,0.05,0.05,0.13,-0.51,-5.04,-8.19,3.70,135.10,-55.60,0.000000,0.000000,0.00,0,0,64.16,N/A$
32.78,32.08,7.31,-1.75,0.05,0.12,-1.06,-4.38,-8.28,4.70,134.10,-47.70,0.000000,0.000000,0.00,0,0,64.04,N/A$
35.97,31.87,7.30,-0.23,0.00,0.07,1.08,-3.87,-9.76,3.50,135.00,-46.10,0.000000,0.000000,0.00,0,0,64.01,N/A$
35.80,31.91,7.94,-0.06,-0.03,-0.00,-0.19,-4.11,-9.20,12.70,138.80,-41.10,0.000000,0.000000,0.00,0,0,64.04,N/A$
36.10,31.87,7.29,0.24,-0.00,0.00,0.00,-4.50,-8.36,4.90,135.90,-46.10,0.000000,0.000000,0.00,0,0,64.01,N/A$
35.80,31.94,7.28,0.42,-0.03,-0.01,-0.15,-3.47,-9.17,4.60,133.30,-41.50,0.000000,0.000000,0.00,0,0,64.01,N/A$
35.08,31.99,7.32,0.24,-0.05,0.02,0.01,-3.90,-9.15,2.90,134.80,-46.60,0.000000,0.000000,0.00,0,0,63.93,N/A$
33.44,32.11,8.21,0.10,0.02,0.02,-0.40,-4.21,-9.09,13.50,142.00,-40.60,0.000000,0.000000,0.00,0,0,64.01,N/A$
35.87,31.89,8.21,0.06,-0.00,0.02,-0.06,-4.44,-8.58,14.60,139.90,-38.00,0.000000,0.000000,0.00,0,0,63.93,N/A$
-0.47,34.55,8.22,0.17,0.02,0.02,-0.02,-3.81,-9.02,13.60,141.70,-39.70,0.000000,0.000000,0.00,0,0,64.10,N/A$
-0.26,34.54,8.22,0.13,-0.00,0.02,-0.18,-4.17,-8.89,13.60,141.70,-39.80,0.000000,0.000000,0.00,0,0,64.13,N/A$
-0.49,34.53,8.22,0.02,-0.00,0.01,-0.25,-3.87,-9.19,13.50,140.90,-40.10,0.000000,0.000000,0.00,0,0,64.04,N/A$
-0.49,34.53,8.22,-0.15,0.03,0.02,-0.21,-3.87,-9.14,14.70,141.10,-40.00,0.000000,0.000000,0.00,0,0,64.08,N/A$
-0.39,34.53,8.22,0.23,0.03,0.30,-0.04,-3.91,-7.93,13.70,141.70,-38.70,0.000000,0.000000,0.00,0,0,64.08,N/A$
-0.62,34.53,8.22,-0.20,-0.02,-0.10,0.19,-3.48,-9.62,15.00,140.00,-37.80,0.000000,0.000000,0.00,0,0,64.07,N/A$
-0.42,34.53,8.23,0.10,-0.02,0.00,0.23,-3.91,-8.71,14.00,140.90,-38.90,0.000000,0.000000,0.00,0,0,64.07,N/A$
-0.50,34.53,8.22,0.00,0.00,-0.02,-0.49,-3.92,-9.19,14.50,140.90,-38.70,0.000000,0.000000,0.00,0,0,64.07,N/A$
-0.27,34.53,8.23,0.07,0.00,0.03,0.20,-3.81,-9.08,14.50,141.40,-37.70,0.000000,0.000000,0.00,0,0,64.07,N/A$
-0.48,34.54,8.22,0.03,0.01,0.02,-0.17,-3.60,-9.36,14.80,140.40,-38.30,0.000000,0.000000,0.00,0,0,64.07,N/A$
-0.19,34.54,7.96,0.06,-0.05,0.00,-0.10,-4.05,-9.49,4.40,134.00,-45.60,0.000000,0.000000,0.00,0,0,64.07,N/A$
32.06,32.21,7.26,-0.13,0.16,-0.13,-0.48,-4.28,-7.71,5.30,136.70,-45.00,0.000000,0.000000,0.00,0,0,63.95,N/A$
34.62,32.04,7.28,0.23,-0.00,0.01,0.10,-3.36,-9.05,5.30,135.10,-44.90,0.000000,0.000000,0.00,0,0,63.94,N/A$
32.68,32.20,7.29,0.23,-0.00,0.02,-0.32,-3.74,-9.27,2.30,137.00,-47.10,0.000000,0.000000,0.00,0,0,63.95,N/A$
32.20,32.23,7.93,0.34,0.00,0.02,-0.22,-3.32,-9.38,4.40,135.30,-44.30,0.000000,0.000000,0.00,0,0,63.95,N/A$
29.23,32.45,7.28,0.05,-0.00,0.06,-0.35,-3.38,-9.28,4.30,135.50,-44.90,0.000000,0.000000,0.00,0,0,63.96,N/A$
32.92,32.18,7.31,-0.14,0.02,0.04,-0.25,-3.34,-8.70,4.40,138.30,-48.00,0.000000,0.000000,0.00,0,0,63.96,N/A$
34.38,32.09,7.28,-0.30,0.02,-0.03,0.17,-2.87,-9.20,4.50,134.90,-44.00,0.000000,0.000000,0.00,0,0,63.96,N/A$
34.74,32.06,8.21,1.02,-0.48,0.00,-1.05,-3.30,-9.70,14.60,141.40,-37.90,0.000000,0.000000,0.00,0,0,63.97,N/A$
-0.72,34.61,8.22,-0.44,0.70,0.05,-0.85,-3.51,-7.69,13.50,141.40,-37.10,0.000000,0.000000,0.00,0,0,64.10,N/A$
-0.63,34.60,8.22,0.03,0.02,0.01,-0.36,-3.68,-9.63,15.10,141.00,-38.60,0.000000,0.000000,0.00,0,0,64.09,N/A$
-0.48,34.59,8.25,-0.00,0.01,0.05,-1.46,-2.65,-9.48,14.30,140.20,-35.90,0.000000,0.000000,0.00,0,0,64.09,N/A$
-0.70,34.59,8.22,0.08,0.02,0.04,-1.94,-4.16,-9.13,14.20,140.90,-37.60,0.000000,0.000000,0.00,0,0,64.09,N/A$
-0.70,34.58,8.22,0.28,0.00,-0.01,1.16,-3.42,-9.35,15.20,141.20,-38.30,0.000000,0.000000,0.00,0,0,64.09,N/A$
-0.43,34.58,8.22,-0.09,0.00,0.04,-0.14,-3.58,-9.08,15.20,140.20,-37.60,0.000000,0.000000,0.00,0,0,64.11,N/A$
-0.38,34.58,8.22,0.26,-0.00,0.02,-0.28,-3.45,-9.29,15.30,142.40,-37.70,0.000000,0.000000,0.00,0,0,64.11,N/A$
-0.46,34.58,8.22,-0.33,0.03,0.03,-0.25,-3.45,-9.64,15.40,140.10,-36.50,0.000000,0.000000,0.00,0,0,64.13,N/A$
-0.39,34.58,8.22,0.05,0.01,0.03,-0.24,-3.88,-9.00,13.90,141.60,-38.70,0.000000,0.000000,0.00,0,0,64.09,N/A$
-0.40,34.59,8.22,0.02,0.01,0.01,-0.10,-3.67,-9.47,15.90,141.60,-38.60,0.000000,0.000000,0.00,0,0,64.16,N/A$
-0.42,34.59,7.97,0.38,-0.01,0.02,-0.05,-3.48,-9.43,14.40,140.30,-37.10,0.000000,0.000000,0.00,0,0,64.14,N/A$
0.31,34.59,7.62,0.00,-0.00,0.03,-0.05,-4.17,-8.87,4.80,136.10,-48.20,0.000000,0.000000,0.00,0,0,64.14,N/A$
32.64,32.23,7.29,0.32,-0.02,0.04,0.20,-3.50,-9.07,4.40,137.60,-44.80,0.000000,0.000000,0.00,0,0,64.01,N/A$
32.83,32.21,7.28,0.10,0.01,0.03,-0.04,-4.48,-8.78,4.20,134.60,-43.60,0.000000,0.000000,0.00,0,0,64.02,N/A$
32.45,32.25,7.93,-0.58,0.05,0.02,0.01,-4.64,-9.03,15.30,139.90,-38.40,0.000000,0.000000,0.00,0,0,64.03,N/A$
25.56,32.75,7.28,0.42,-0.02,0.02,-0.12,-4.25,-8.88,4.60,135.00,-45.70,0.000000,0.000000,0.00,0,0,64.05,N/A$
32.29,32.27,7.27,-0.04,0.02,-0.04,-1.24,-3.77,-9.30,5.20,136.10,-45.30,0.000000,0.000000,0.00,0,0,64.03,N/A$
32.48,32.23,7.29,-0.30,0.03,0.06,1.11,-3.82,-9.06,5.60,136.00,-47.90,0.000000,0.000000,0.00,0,0,64.03,N/A$
32.41,32.27,8.21,1.11,-0.00,0.03,-1.69,-4.47,-9.52,17.00,141.00,-37.90,0.000000,0.000000,0.00,0,0,64.04,N/A$
5.84,34.18,8.22,0.35,-0.00,0.01,0.41,-3.88,-9.57,17.00,141.40,-40.60,0.000000,0.000000,0.00,0,0,64.16,N/A$
-0.24,34.64,8.21,0.06,0.01,0.02,-0.27,-4.65,-8.71,16.60,141.50,-41.70,0.000000,0.000000,0.00,0,0,64.16,N/A$
-0.34,34.63,8.22,0.13,-0.01,0.02,-0.38,-3.80,-9.04,16.30,141.50,-41.00,0.000000,0.000000,0.00,0,0,64.30,N/A$
-0.17,34.63,8.22,-0.13,0.01,0.02,-0.39,-4.04,-9.27,16.80,141.60,-39.80,0.000000,0.000000,0.00,0,0,64.30,N/A$
-0.36,34.63,8.22,0.71,0.00,0.15,-0.14,-3.91,-9.04,15.90,140.70,-42.60,0.000000,0.000000,0.00,0,0,64.20,N/A$
-0.48,34.63,8.22,0.30,0.00,0.03,0.38,-5.51,-8.42,17.80,141.60,-42.20,0.000000,0.000000,0.00,0,0,64.27,N/A$
-0.45,34.63,8.22,-0.27,-0.16,-0.00,-0.51,-3.83,-9.14,16.00,140.10,-42.10,0.000000,0.000000,0.00,0,0,64.38,N/A$
-0.52,34.64,8.22,-0.14,-0.06,0.05,1.40,-2.83,-9.71,16.40,139.60,-42.30,0.000000,0.000000,0.00,0,0,64.42,N/A$
-0.81,34.64,8.22,0.21,-0.00,0.05,-3.96,-5.78,-6.64,15.80,141.10,-43.90,0.000000,0.000000,0.00,0,0,64.24,N/A$
-0.34,34.64,8.22,0.61,-0.02,0.02,0.85,-4.57,-9.39,16.00,141.60,-44.00,0.000000,0.000000,0.00,0,0,64.36,N/A$
-0.65,34.65,8.22,-0.33,-0.00,0.18,-1.00,-5.27,-11.21,16.10,140.10,-42.70,0.000000,0.000000,0.00,0,0,64.35,N/A$
-0.60,34.65,7.94,0.46,0.01,0.04,0.18,-5.77,-8.67,8.50,135.30,-50.20,0.000000,0.000000,0.00,0,0,64.40,N/A$
31.07,32.39,7.25,-0.20,0.01,0.03,-0.22,-4.36,-8.93,6.60,136.30,-54.10,0.000000,0.000000,0.00,0,0,64.31,N/A$
30.44,32.41,7.27,-0.35,-0.16,0.07,-1.23,-5.66,-7.25,8.60,134.70,-48.40,0.000000,0.000000,0.00,0,0,64.32,N/A$
30.39,32.44,7.27,0.15,-0.00,0.05,-0.53,-4.52,-8.26,7.00,133.70,-46.50,0.000000,0.000000,0.00,0,0,64.34,N/A$
30.83,32.41,7.93,-0.55,0.03,0.05,0.48,-3.28,-10.16,9.10,134.10,-46.50,0.000000,0.000000,0.00,0,0,64.36,N/A$
31.45,32.38,7.27,0.06,0.02,0.14,1.89,-3.64,-9.19,8.90,135.30,-46.40,0.000000,0.000000,0.00,0,0,64.38,N/A$
32.76,32.33,7.31,0.00,0.00,0.05,-0.15,-3.20,-9.09,8.70,135.00,-48.70,0.000000,0.000000,0.00,0,0,64.39,N/A$
32.50,32.35,7.28,-0.38,0.02,0.04,0.05,-3.66,-9.07,9.90,134.40,-46.30,0.000000,0.000000,0.00,0,0,64.42,N/A$
32.84,32.34,8.21,0.01,0.01,0.02,-0.45,-4.48,-8.71,19.30,138.90,-39.30,0.000000,0.000000,0.00,0,0,64.44,N/A$
-0.54,34.72,8.21,0.18,-0.00,0.03,0.90,-2.78,-9.10,19.80,139.30,-38.90,0.000000,0.000000,0.00,0,0,64.58,N/A$
-1.02,34.71,8.21,-0.63,0.00,-0.03,0.94,-4.56,-7.44,17.80,138.30,-39.10,0.000000,0.000000,0.00,0,0,64.59,N/A$
-0.52,34.70,8.21,-0.06,0.01,-0.00,-2.08,-3.62,-10.27,18.20,137.10,-39.10,0.000000,0.000000,0.00,0,0,64.63,N/A$
-1.87,34.70,8.21,-1.00,0.00,-0.00,-4.56,-0.30,-8.24,19.40,136.50,-36.90,0.000000,0.000000,0.00,0,0,64.67,N/A$
-2.74,34.70,8.22,-0.92,0.05,-0.15,-0.72,-2.57,-9.50,19.10,136.50,-32.20,0.000000,0.000000,0.00,0,0,64.73,N/A$
-3.34,34.70,8.22,0.22,-0.04,0.22,5.82,-0.66,-10.79,16.70,135.70,-31.60,0.000000,0.000000,0.00,0,0,64.79,N/A$
-1.39,34.70,8.22,0.22,0.00,0.04,-5.99,0.84,-10.92,17.40,135.10,-32.30,0.000000,0.000000,0.00,0,0,64.90,N/A$
-2.88,34.70,8.22,-0.36,-0.03,-0.02,1.29,-0.22,-10.61,18.40,134.60,-32.00,0.000000,0.000000,0.00,0,0,65.00,N/A$
-1.53,34.71,8.22,0.11,0.00,0.01,0.17,-0.88,-10.04,17.60,134.10,-31.60,0.000000,0.000000,0.00,0,0,65.13,N/A$
-0.30,34.71,8.23,0.13,0.02,0.02,0.10,-0.00,-10.05,18.90,134.40,-31.50,0.000000,0.000000,0.00,0,0,65.24,N/A$
0.04,34.71,7.96,-0.02,0.00,0.03,-0.27,0.10,-10.14,17.00,134.20,-29.90,0.000000,0.000000,0.00,0,0,65.44,N/A$
5.19,34.41,7.56,0.07,0.00,0.03,0.01,0.23,-10.46,8.50,131.60,-42.10,0.000000,0.000000,0.00,0,0,65.50,N/A$
33.23,32.33,7.31,0.06,0.00,0.03,-0.00,-0.43,-10.15,7.20,129.60,-41.70,0.000000,0.000000,0.00,0,0,65.46,N/A$
35.25,32.21,7.28,0.19,-0.00,0.02,-0.57,-0.67,-9.90,9.00,131.40,-40.40,0.000000,0.000000,0.00,0,0,65.50,N/A$
37.79,32.02,7.94,0.15,0.00,0.02,0.10,-0.42,-10.06,10.10,130.30,-37.00,0.000000,0.000000,0.00,0,0,65.54,N/A$
16.42,33.63,7.28,0.10,0.00,0.02,-0.34,-0.39,-9.96,6.10,131.00,-38.80,0.000000,0.000000,0.00,0,0,65.65,N/A$
38.97,31.95,7.31,0.07,0.00,0.02,0.11,-0.35,-10.02,7.70,129.60,-39.60,0.000000,0.000000,0.00,0,0,65.62,N/A$
38.90,31.94,7.30,0.06,-0.00,0.02,-0.26,-0.34,-10.00,7.80,130.60,-42.50,0.000000,0.000000,0.00,0,0,65.65,N/A$
39.21,31.95,8.21,0.07,0.01,0.02,0.05,-0.37,-10.02,17.10,135.00,-29.20,0.000000,0.000000,0.00,0,0,65.68,N/A$
-0.61,34.78,8.21,0.07,0.01,0.02,-0.06,-0.39,-9.99,16.10,134.40,-30.60,0.000000,0.000000,0.00,0,0,65.88,N/A$
0.03,34.78,8.21,0.08,0.00,0.02,-0.02,-0.36,-9.99,17.70,136.50,-31.30,0.000000,0.000000,0.00,0,0,65.91,N/A$
-0.31,34.77,8.21,0.07,0.00,0.02,0.03,-0.39,-10.02,18.70,135.00,-32.90,0.000000,0.000000,0.00,0,0,65.94,N/A$
-0.79,34.76,8.22,0.07,0.00,0.02,-0.07,-0.39,-10.01,17.80,137.30,-30.50,0.000000,0.000000,0.00,0,0,65.98,N/A$
-0.21,34.76,8.22,0.06,0.00,0.02,0.13,-0.36,-10.00,17.10,135.20,-29.90,0.000000,0.000000,0.00,0,0,66.01,N/A$
-0.35,34.76,8.22,0.06,0.00,0.02,-0.11,-0.41,-9.98,17.10,135.30,-32.30,0.000000,0.000000,0.00,0,0,66.03,N/A$
-0.23,34.76,8.21,0.06,0.01,0.02,0.14,-0.41,-10.01,17.30,135.30,-30.80,0.000000,0.000000,0.00,0,0,66.09,N/A$
-0.21,34.76,8.22,0.07,0.01,0.02,-0.17,-0.38,-10.02,17.10,134.20,-32.90,0.000000,0.000000,0.00,0,0,66.11,N/A$
-0.18,34.76,8.22,0.07,0.01,0.02,0.06,-0.37,-10.02,16.30,134.00,-32.10,0.000000,0.000000,0.00,0,0,66.13,N/A$
0.15,34.76,8.22,0.06,0.01,0.02,-0.11,-0.36,-10.01,17.20,134.70,-31.20,0.000000,0.000000,0.00,0,0,66.16,N/A$
-0.19,34.76,8.22,0.05,0.00,0.02,-0.01,-0.35,-10.01,17.70,134.60,-33.50,0.000000,0.000000,0.00,0,0,66.20,N/A$
0.02,34.76,7.94,0.04,0.00,0.03,-0.03,-0.36,-9.95,7.20,129.20,-40.90,0.000000,0.000000,0.00,0,0,66.21,N/A$
-0.01,34.76,7.29,0.03,0.00,0.03,-0.11,-0.41,-10.10,8.10,128.90,-39.70,0.000000,0.000000,0.00,0,0,66.24,N/A$
39.93,31.92,7.29,0.03,0.00,0.03,0.05,-0.39,-9.89,8.00,131.60,-39.60,0.000000,0.000000,0.00,0,0,66.17,N/A$
40.46,31.90,7.31,0.05,0.00,0.02,-0.16,-0.44,-10.03,7.00,130.90,-37.90,0.000000,0.000000,0.00,0,0,66.16,N/A$
40.38,31.91,7.94,0.04,0.00,0.03,-0.02,-0.38,-10.02,8.30,130.10,-40.20,0.000000,0.000000,0.00,0,0,66.17,N/A$
39.88,31.93,7.30,0.02,0.00,0.03,-0.02,-0.23,-9.92,8.80,130.80,-41.90,0.000000,0.000000,0.00,0,0,66.22,N/A$
39.89,31.97,7.31,0.01,0.00,0.03,0.03,-0.32,-9.99,7.20,128.60,-39.20,0.000000,0.000000,0.00,0,0,66.20,N/A$
39.02,32.03,7.30,0.04,0.00,0.03,-0.03,-0.36,-10.01,8.50,129.40,-39.70,0.000000,0.000000,0.00,0,0,66.26,N/A$
32.07,32.45,8.21,0.05,0.00,0.02,-0.03,-0.31,-10.04,17.90,133.80,-30.00,0.000000,0.000000,0.00,0,0,66.33,N/A$
-0.25,34.83,8.21,0.05,0.01,0.02,-0.03,-0.29,-10.10,17.20,134.60,-33.80,0.000000,0.000000,0.00,0,0,66.49,N/A$
-0.37,34.82,8.21,0.04,0.01,0.02,-0.08,-0.34,-10.00,19.90,134.90,-33.70,0.000000,0.000000,0.00,0,0,66.50,N/A$
0.14,34.81,8.21,0.06,0.00,0.02,0.00,-0.33,-10.04,17.80,135.00,-31.60,0.000000,0.000000,0.00,0,0,66.53,N/A$
-0.26,34.81,8.21,0.06,0.01,0.02,-0.14,-0.38,-10.00,18.00,136.20,-29.70,0.000000,0.000000,0.00,0,0,66.55,N/A$
-0.36,34.81,8.21,0.05,0.00,0.02,0.02,-0.39,-9.93,19.30,135.40,-31.40,0.000000,0.000000,0.00,0,0,66.58,N/A$
-0.11,34.80,8.22,0.07,0.01,0.02,-0.06,-0.41,-10.01,20.10,136.10,-31.70,0.000000,0.000000,0.00,0,0,66.61,N/A$
-0.12,34.81,8.22,0.06,0.01,0.02,-0.01,-0.38,-10.00,17.00,134.80,-31.10,0.000000,0.000000,0.00,0,0,66.62,N/A$
-0.12,34.81,8.22,-0.07,0.01,0.02,-0.08,-0.43,-10.03,17.40,135.50,-31.50,0.000000,0.000000,0.00,0,0,66.65,N/A$
-0.44,34.81,8.22,0.03,0.00,0.02,-0.03,-0.43,-9.95,17.50,133.90,-31.80,0.000000,0.000000,0.00,0,0,66.67,N/A$
-0.30,34.81,8.21,0.04,0.00,0.02,-0.02,-0.37,-10.05,18.70,135.30,-31.70,0.000000,0.000000,0.00,0,0,66.69,N/A$
-0.55,34.81,7.96,0.06,0.01,0.02,-0.04,-0.41,-10.02,18.60,134.20,-31.10,0.000000,0.000000,0.00,0,0,66.73,N/A$
29.04,32.72,7.72,0.04,-0.00,0.02,-0.03,-0.40,-9.99,8.30,128.90,-41.20,0.000000,0.000000,0.00,0,0,66.63,N/A$
37.32,32.17,7.30,0.04,0.00,0.03,-0.01,-0.43,-9.92,6.80,131.80,-41.80,0.000000,0.000000,0.00,0,0,66.62,N/A$
37.10,32.20,7.28,0.06,0.00,0.03,-0.08,-0.43,-9.99,8.60,130.80,-39.10,0.000000,0.000000,0.00,0,0,66.65,N/A$
36.98,32.21,7.94,0.07,0.00,0.02,-0.02,-0.38,-10.00,13.20,133.00,-37.90,0.000000,0.000000,0.00,0,0,66.66,N/A$
26.30,33.01,7.29,0.04,0.00,0.03,-0.05,-0.36,-9.99,8.40,132.10,-39.30,0.000000,0.000000,0.00,0,0,66.72,N/A$
36.96,32.24,7.29,0.03,0.00,0.02,0.02,-0.35,-10.00,8.00,131.40,-38.80,0.000000,0.000000,0.00,0,0,66.69,N/A$
36.27,32.28,7.31,0.03,0.00,0.03,-0.03,-0.39,-9.99,9.70,128.70,-39.20,0.000000,0.000000,0.00,0,0,66.71,N/A$
36.39,32.26,8.21,0.05,0.00,0.02,-0.05,-0.38,-9.99,18.50,134.50,-31.60,0.000000,0.000000,0.00,0,0,66.73,N/A$
-0.25,34.90,8.20,0.06,0.00,0.02,-0.03,-0.38,-9.97,17.40,134.60,-32.40,0.000000,0.000000,0.00,0,0,66.90,N/A$
-0.15,34.88,8.21,0.07,0.00,0.02,0.00,-0.38,-9.99,18.00,135.20,-32.70,0.000000,0.000000,0.00,0,0,66.91,N/A$
-0.02,34.87,8.21,0.08,0.00,0.02,-0.02,-0.37,-10.00,17.40,134.80,-30.00,0.000000,0.000000,0.00,0,0,66.92,N/A$
-0.08,34.87,8.21,0.06,0.01,0.02,-0.03,-0.37,-10.01,17.00,135.90,-33.70,0.000000,0.000000,0.00,0,0,66.94,N/A$
-0.11,34.87,8.21,0.06,0.00,0.02,0.00,-0.34,-10.04,17.70,134.90,-29.90,0.000000,0.000000,0.00,0,0,66.96,N/A$
0.36,34.87,8.21,0.06,0.00,0.02,-0.06,-0.33,-9.99,16.10,135.90,-31.30,0.000000,0.000000,0.00,0,0,66.97,N/A$
0.08,34.87,8.22,0.06,0.00,0.02,0.00,-0.36,-9.98,18.60,134.70,-32.20,0.000000,0.000000,0.00,0,0,66.99,N/A$
-0.08,34.87,8.21,0.08,0.01,0.02,-0.01,-0.36,-9.99,17.60,133.80,-31.50,0.000000,0.000000,0.00,0,0,67.00,N/A$
0.21,34.87,8.21,0.06,0.01,0.02,-0.03,-0.36,-9.99,18.10,135.40,-31.60,0.000000,0.000000,0.00,0,0,67.02,N/A$
0.30,34.87,8.22,0.04,0.00,0.02,-0.05,-0.38,-10.03,18.80,134.00,-32.90,0.000000,0.000000,0.00,0,0,67.04,N/A$
0.00,34.87,8.22,0.05,0.01,0.02,-0.04,-0.39,-9.99,17.10,133.00,-33.20,0.000000,0.000000,0.00,0,0,67.05,N/A$
-0.36,34.87,7.93,0.04,0.01,0.03,-0.02,-0.39,-10.02,8.20,130.00,-38.90,0.000000,0.000000,0.00,0,0,67.06,N/A$
0.92,34.88,7.28,0.03,0.00,0.03,-0.05,-0.35,-9.97,8.30,131.30,-37.70,0.000000,0.000000,0.00,0,0,67.09,N/A$
40.47,31.99,7.27,0.02,0.01,0.03,-0.03,-0.37,-9.96,7.10,129.60,-38.70,0.000000,0.000000,0.00,0,0,66.97,N/A$
40.35,32.00,7.31,0.04,0.00,0.03,-0.05,-0.38,-10.00,7.20,130.20,-36.50,0.000000,0.000000,0.00,0,0,66.96,N/A$
40.97,32.01,7.94,0.04,0.00,0.03,-0.05,-0.35,-9.99,8.80,129.30,-37.40,0.000000,0.000000,0.00,0,0,67.02,N/A$
36.53,32.27,7.29,0.03,0.00,0.03,-0.08,-0.35,-10.00,8.50,130.90,-39.90,0.000000,0.000000,0.00,0,0,66.97,N/A$
40.02,32.05,7.29,0.04,0.00,0.02,-0.08,-0.34,-10.01,7.90,131.90,-42.70,0.000000,0.000000,0.00,0,0,66.98,N/A$
40.14,32.04,7.28,0.04,0.00,0.03,-0.05,-0.35,-10.04,8.80,130.40,-42.20,0.000000,0.000000,0.00,0,0,67.03,N/A$
40.00,32.06,8.20,0.06,0.01,0.02,-0.06,-0.33,-9.98,17.60,134.40,-31.90,0.000000,0.000000,0.00,0,0,67.04,N/A$
11.70,34.08,8.21,0.05,0.01,0.02,-0.06,-0.34,-9.99,18.90,135.20,-30.20,0.000000,0.000000,0.00,0,0,67.10,N/A$
-0.10,34.95,8.21,0.06,0.01,0.02,-0.02,-0.44,-9.97,17.40,133.60,-31.50,0.000000,0.000000,0.00,0,0,67.18,N/A$
-0.28,34.94,8.20,0.07,0.01,0.02,-0.06,-0.43,-10.03,17.90,135.60,-30.30,0.000000,0.000000,0.00,0,0,67.18,N/A$
-0.24,34.93,8.21,0.06,0.01,0.02,-0.09,-0.37,-10.02,19.10,136.50,-33.30,0.000000,0.000000,0.00,0,0,67.16,N/A$
-0.25,34.93,8.22,0.05,0.01,0.02,-0.02,-0.37,-10.01,18.50,135.70,-31.10,0.000000,0.000000,0.00,0,0,67.23,N/A$
0.32,34.92,8.21,0.04,0.00,0.02,-0.08,-0.38,-9.98,18.30,135.50,-30.70,0.000000,0.000000,0.00,0,0,67.24,N/A$
0.10,34.93,8.21,0.06,0.01,0.02,-0.04,-0.42,-10.00,18.20,136.20,-31.30,0.000000,0.000000,0.00,0,0,67.25,N/A$
-0.30,34.93,8.21,0.07,0.00,0.02,-0.06,-0.38,-10.00,18.50,135.50,-32.70,0.000000,0.000000,0.00,0,0,67.26,N/A$
-0.04,34.93,8.21,0.07,0.00,0.02,-0.03,-0.36,-10.01,17.90,135.10,-29.70,0.000000,0.000000,0.00,0,0,67.27,N/A$
-0.10,34.93,8.21,0.05,0.00,0.02,-0.04,-0.38,-10.02,19.20,134.80,-29.90,0.000000,0.000000,0.00,0,0,67.29,N/A$
0.06,34.93,7.95,0.05,0.01,0.02,-0.05,-0.39,-9.99,17.40,136.60,-31.40,0.000000,0.000000,0.00,0,0,67.30,N/A$
-0.11,34.93,7.93,0.03,0.00,0.02,-0.03,-0.37,-9.95,8.60,131.10,-40.00,0.000000,0.000000,0.00,0,0,67.32,N/A$
39.91,32.06,7.27,0.03,0.00,0.03,-0.02,-0.38,-10.02,9.50,130.30,-40.10,0.000000,0.000000,0.00,0,0,67.12,N/A$
39.67,32.07,7.31,0.04,0.00,0.03,-0.04,-0.38,-9.99,8.30,131.40,-41.70,0.000000,0.000000,0.00,0,0,67.13,N/A$
39.66,32.10,7.94,0.06,0.00,0.02,-0.02,-0.37,-9.99,15.60,133.80,-33.10,0.000000,0.000000,0.00,0,0,67.19,N/A$
38.99,32.14,7.34,0.04,0.00,0.02,-0.06,-0.36,-10.00,8.80,128.90,-38.70,0.000000,0.000000,0.00,0,0,67.19,N/A$
38.16,32.24,7.27,0.04,0.01,0.02,0.00,-0.36,-9.98,7.70,132.60,-41.30,0.000000,0.000000,0.00,0,0,67.20,N/A$
37.39,32.30,7.30,0.04,0.00,0.03,-0.02,-0.36,-10.00,7.80,128.10,-39.60,0.000000,0.000000,0.00,0,0,67.20,N/A$
36.06,32.36,8.20,0.05,0.01,0.02,-0.04,-0.38,-10.02,18.40,135.80,-34.30,0.000000,0.000000,0.00,0,0,67.22,N/A$
-0.18,35.00,8.21,0.06,0.00,0.02,-0.06,-0.38,-10.03,19.10,134.70,-31.70,0.000000,0.000000,0.00,0,0,67.38,N/A$
-0.24,34.99,8.21,0.05,0.00,0.02,-0.03,-0.38,-10.01,18.20,134.90,-32.50,0.000000,0.000000,0.00,0,0,67.37,N/A$
-0.09,34.98,8.21,0.05,0.00,0.02,-0.04,-0.35,-9.96,16.60,135.50,-32.10,0.000000,0.000000,0.00,0,0,67.38,N/A$
-0.28,34.98,8.21,0.06,0.00,0.02,-0.04,-0.36,-10.01,17.70,136.20,-32.10,0.000000,0.000000,0.00,0,0,67.40,N/A$
0.07,34.97,8.21,0.05,0.01,0.02,-0.06,-0.38,-10.13,17.90,135.90,-31.50,0.000000,0.000000,0.00,0,0,67.40,N/A$
0.09,34.97,8.21,0.05,0.00,0.02,-0.05,-0.39,-10.04,17.10,135.10,-32.30,0.000000,0.000000,0.00,0,0,67.42,N/A$
-0.03,34.97,8.21,0.05,0.00,0.02,-0.03,-0.39,-10.02,17.60,136.00,-33.20,0.000000,0.000000,0.00,0,0,67.42,N/A$
-0.11,34.98,8.21,0.05,0.01,0.02,-0.07,-0.41,-10.04,18.60,135.70,-31.80,0.000000,0.000000,0.00,0,0,67.43,N/A$
-0.20,34.98,8.22,0.05,0.00,0.02,-0.01,-0.37,-10.05,17.90,136.20,-32.00,0.000000,0.000000,0.00,0,0,67.44,N/A$
-0.16,34.98,8.22,0.05,0.00,0.02,-0.08,-0.36,-9.99,17.60,135.10,-32.60,0.000000,0.000000,0.00,0,0,67.44,N/A$
-0.34,34.98,8.21,0.05,0.01,0.02,-0.02,-0.34,-10.00,17.80,135.30,-31.60,0.000000,0.000000,0.00,0,0,67.44,N/A$
-0.27,34.99,7.94,0.04,0.00,0.02,-0.04,-0.39,-10.00,8.50,130.70,-38.00,0.000000,0.000000,0.00,0,0,67.47,N/A$
6.11,34.60,7.28,0.04,0.00,0.03,-0.05,-0.36,-9.99,7.40,131.60,-36.00,0.000000,0.000000,0.00,0,0,67.44,N/A$
38.97,32.15,7.29,0.04,0.01,0.02,-0.02,-0.39,-10.17,7.60,128.90,-38.20,0.000000,0.000000,0.00,0,0,67.30,N/A$
39.36,32.15,7.30,0.04,0.00,0.02,-0.05,-0.35,-10.09,8.80,130.60,-40.30,0.000000,0.000000,0.00,0,0,67.30,N/A$
39.08,32.19,7.93,0.03,0.00,0.03,-0.09,-0.44,-10.07,8.10,130.40,-40.30,0.000000,0.000000,0.00,0,0,67.32,N/A$
16.07,33.90,7.29,0.08,0.00,0.02,0.00,-0.60,-10.09,8.10,129.60,-41.10,0.000000,0.000000,0.00,0,0,67.41,N/A$
38.48,32.25,7.31,0.15,0.00,0.02,-0.02,-0.59,-10.03,7.20,131.50,-39.10,0.000000,0.000000,0.00,0,0,67.32,N/A$
39.07,32.24,7.31,0.10,0.00,0.02,0.07,-0.36,-9.81,7.80,130.80,-37.20,0.000000,0.000000,0.00,0,0,67.33,N/A$
39.08,32.24,8.21,0.06,0.00,0.02,-0.05,-0.30,-9.95,18.10,136.20,-32.00,0.000000,0.000000,0.00,0,0,67.33,N/A$
-0.09,35.06,8.21,0.05,0.01,0.02,-0.04,-0.35,-9.98,17.60,135.80,-30.40,0.000000,0.000000,0.00,0,0,67.51,N/A$
-0.17,35.05,8.20,0.01,0.01,0.03,0.14,-0.52,-9.99,18.00,134.00,-33.50,0.000000,0.000000,0.00,0,0,67.49,N/A$
-0.22,35.05,8.21,0.02,0.00,0.02,-0.05,-0.36,-9.93,17.00,135.80,-32.00,0.000000,0.000000,0.00,0,0,67.53,N/A$
-0.12,35.04,8.21,0.05,0.01,0.02,-0.05,-0.39,-10.14,17.90,135.20,-29.90,0.000000,0.000000,0.00,0,0,67.51,N/A$
-0.26,35.04,8.20,0.03,0.02,0.02,-0.02,-0.40,-10.02,19.40,136.30,-32.30,0.000000,0.000000,0.00,0,0,67.50,N/A$
-0.33,35.04,8.21,0.05,0.00,0.02,-0.05,-0.36,-9.93,17.10,135.60,-29.70,0.000000,0.000000,0.00,0,0,67.50,N/A$
-0.20,35.03,8.21,0.05,0.01,0.02,0.00,-0.28,-10.05,17.80,135.80,-31.60,0.000000,0.000000,0.00,0,0,67.49,N/A$
0.02,35.04,8.21,0.06,0.00,0.02,-0.02,-0.32,-10.00,18.20,135.50,-32.00,0.000000,0.000000,0.00,0,0,67.59,N/A$
-0.19,35.04,8.22,0.05,0.00,0.02,-0.04,-0.39,-10.04,16.40,135.00,-31.70,0.000000,0.000000,0.00,0,0,67.58,N/A$
0.09,35.04,8.21,0.06,0.00,0.02,-0.01,-0.39,-10.01,17.80,136.40,-31.30,0.000000,0.000000,0.00,0,0,67.57,N/A$
-0.07,35.04,7.94,0.05,0.00,0.02,-0.03,-0.39,-10.00,18.00,135.10,-31.00,0.000000,0.000000,0.00,0,0,67.54,N/A$
0.12,35.04,7.95,0.04,0.00,0.03,-0.00,-0.40,-9.98,9.60,130.20,-39.70,0.000000,0.000000,0.00,0,0,67.52,N/A$
38.99,32.25,7.29,0.04,0.00,0.03,-0.06,-0.37,-9.97,5.90,129.30,-41.00,0.000000,0.000000,0.00,0,0,67.40,N/A$
39.12,32.24,7.30,0.03,0.00,0.03,-0.02,-0.40,-10.01,8.30,129.30,-37.60,0.000000,0.000000,0.00,0,0,67.43,N/A$
38.81,32.27,7.95,0.04,0.01,0.02,-0.04,-0.39,-9.98,17.10,135.20,-30.10,0.000000,0.000000,0.00,0,0,67.36,N/A$
38.41,32.29,7.31,0.03,0.00,0.02,-0.02,-0.35,-10.01,7.50,129.90,-38.90,0.000000,0.000000,0.00,0,0,67.49,N/A$
38.18,32.33,7.29,0.03,0.00,0.03,-0.04,-0.34,-10.00,8.10,130.70,-38.80,0.000000,0.000000,0.00,0,0,67.45,N/A$
38.47,32.32,7.31,0.03,0.00,0.03,-0.10,-0.34,-10.01,7.90,130.80,-43.40,0.000000,0.000000,0.00,0,0,67.41,N/A$
38.48,32.33,8.20,0.05,0.00,0.02,0.04,-0.42,-9.98,18.10,136.10,-31.10,0.000000,0.000000,0.00,0,0,67.41,N/A$
34.03,32.57,8.21,0.05,0.00,0.02,-0.16,-0.39,-9.96,17.10,136.80,-32.30,0.000000,0.000000,0.00,0,0,67.34,N/A$
-0.11,35.10,8.21,0.05,0.00,0.02,0.02,-0.34,-9.99,17.10,134.70,-31.40,0.000000,0.000000,0.00,0,0,67.59,N/A$
-0.27,35.10,8.21,0.06,0.01,0.02,-0.09,-0.35,-10.02,17.10,135.60,-31.80,0.000000,0.000000,0.00,0,0,67.55,N/A$
-0.05,35.09,8.21,0.08,0.00,0.02,-0.04,-0.42,-10.00,17.40,136.10,-31.90,0.000000,0.000000,0.00,0,0,67.61,N/A$
-0.23,35.09,8.21,0.03,0.00,0.02,-0.03,-0.42,-9.99,17.60,136.40,-34.60,0.000000,0.000000,0.00,0,0,67.59,N/A$
-0.34,35.09,8.21,0.02,0.01,0.02,-0.05,-0.48,-10.00,18.20,135.00,-33.10,0.000000,0.000000,0.00,0,0,67.60,N/A$
-0.20,35.09,8.21,0.04,0.01,0.02,-0.02,-0.56,-9.98,17.30,134.50,-30.50,0.000000,0.000000,0.00,0,0,67.61,N/A$
0.03,35.09,8.21,0.01,0.02,0.02,-0.08,-0.30,-9.66,17.00,134.80,-32.10,0.000000,0.000000,0.00,0,0,67.61,N/A$
-0.11,35.09,8.21,0.05,0.00,0.02,-0.11,-0.60,-10.02,19.60,134.70,-33.40,0.000000,0.000000,0.00,0,0,67.62,N/A$
-0.20,35.09,8.21,0.11,0.01,0.01,-0.05,-0.55,-10.00,18.50,136.70,-34.30,0.000000,0.000000,0.00,0,0,67.62,N/A$
-0.25,35.10,8.21,0.05,0.00,0.02,-0.02,-0.41,-10.04,17.60,136.20,-32.00,0.000000,0.000000,0.00,0,0,67.62,N/A$
-0.23,35.10,7.96,0.03,0.02,0.03,-0.65,-0.31,-10.05,8.50,130.60,-40.50,0.000000,0.000000,0.00,0,0,67.62,N/A$
26.27,33.20,7.29,-0.16,0.02,0.03,-0.51,-0.83,-11.31,7.30,130.30,-40.60,0.000000,0.000000,0.00,0,0,67.51,N/A$
35.99,32.51,7.27,0.05,0.00,0.03,0.03,-0.39,-9.61,7.00,130.30,-34.90,0.000000,0.000000,0.00,0,0,67.47,N/A$
36.15,32.50,7.30,0.10,0.00,0.01,-0.49,-0.14,-9.76,6.80,128.90,-38.90,0.000000,0.000000,0.00,0,0,67.47,N/A$
37.14,32.44,7.93,0.07,0.02,0.02,0.03,-0.06,-9.70,7.70,130.20,-40.00,0.000000,0.000000,0.00,0,0,67.47,N/A$
27.50,33.15,7.30,0.03,0.00,0.02,-0.34,-0.50,-10.55,7.40,130.00,-39.60,0.000000,0.000000,0.00,0,0,67.51,N/A$
37.90,32.38,7.28,0.06,0.00,0.02,0.27,-0.23,-9.89,8.30,130.20,-39.30,0.000000,0.000000,0.00,0,0,67.47,N/A$
38.12,32.38,7.29,-0.02,0.00,0.03,-0.06,-0.10,-9.98,8.50,132.10,-41.50,0.000000,0.000000,0.00,0,0,67.47,N/A$
37.92,32.40,8.20,0.08,0.00,0.01,-0.01,-0.44,-10.16,18.10,135.50,-31.30,0.000000,0.000000,0.00,0,0,67.46,N/A$
-0.68,35.17,8.20,0.12,0.01,0.01,0.18,-0.72,-9.92,17.60,134.20,-30.10,0.000000,0.000000,0.00,0,0,67.63,N/A$
-0.43,35.16,8.20,0.19,0.01,0.02,-0.09,-0.54,-9.92,17.10,136.30,-31.60,0.000000,0.000000,0.00,0,0,67.63,N/A$
-0.17,35.15,8.21,0.20,-0.00,0.02,0.18,-0.27,-10.07,17.40,135.00,-31.00,0.000000,0.000000,0.00,0,0,67.63,N/A$
-0.56,35.15,8.21,-0.18,0.01,0.09,-0.21,0.40,-9.96,17.30,136.30,-30.70,0.000000,0.000000,0.00,0,0,67.64,N/A$
-0.51,35.15,8.21,0.20,0.01,0.01,-0.00,-0.31,-10.27,16.60,134.30,-30.80,0.000000,0.000000,0.00,0,0,67.64,N/A$
-0.59,35.14,8.21,0.08,0.01,0.01,-0.16,-0.19,-10.29,17.20,135.00,-30.80,0.000000,0.000000,0.00,0,0,67.64,N/A$
-0.41,35.14,8.21,-0.01,0.00,0.02,0.05,-0.09,-9.88,19.40,136.30,-31.30,0.000000,0.000000,0.00,0,0,67.66,N/A$
-0.48,35.15,8.21,0.02,0.00,0.02,-0.09,-0.73,-10.06,17.60,135.60,-32.70,0.000000,0.000000,0.00,0,0,67.64,N/A$
-0.26,35.15,8.21,0.02,0.01,0.01,-0.23,-0.98,-10.00,17.80,135.50,-31.90,0.000000,0.000000,0.00,0,0,67.66,N/A$
-0.60,35.15,8.21,0.23,-0.00,0.01,0.23,-0.50,-9.84,17.50,136.40,-29.60,0.000000,0.000000,0.00,0,0,67.71,N/A$
-0.32,35.15,7.97,0.25,0.00,0.02,-0.20,-1.04,-9.94,17.10,134.90,-32.10,0.000000,0.000000,0.00,0,0,67.65,N/A$
0.21,35.16,7.56,-0.08,0.00,0.02,-0.26,-0.80,-10.11,7.40,130.40,-40.60,0.000000,0.000000,0.00,0,0,67.65,N/A$
38.13,32.39,7.28,0.46,-0.00,-0.00,-0.08,-0.38,-10.10,9.00,130.80,-40.30,0.000000,0.000000,0.00,0,0,67.50,N/A$
38.78,32.36,7.30,0.29,-0.00,0.02,-0.23,-0.36,-10.03,8.70,130.30,-40.00,0.000000,0.000000,0.00,0,0,67.49,N/A$
38.83,32.37,7.95,0.16,0.00,0.02,-0.08,-0.38,-10.02,10.90,133.30,-34.20,0.000000,0.000000,0.00,0,0,67.48,N/A$
35.02,32.62,7.28,0.13,-0.00,0.03,-0.22,-0.07,-10.17,7.30,129.30,-37.80,0.000000,0.000000,0.00,0,0,67.50,N/A$
38.88,32.40,7.30,-0.20,0.01,0.03,-0.16,-0.50,-10.20,6.60,130.00,-39.00,0.000000,0.000000,0.00,0,0,67.49,N/A$
39.05,32.39,7.31,0.12,0.00,0.02,-0.08,-0.03,-9.96,7.40,131.70,-41.20,0.000000,0.000000,0.00,0,0,67.49,N/A$
38.90,32.41,8.20,-0.16,0.01,0.02,0.07,-0.37,-9.97,17.70,135.30,-30.80,0.000000,0.000000,0.00,0,0,67.48,N/A$
11.19,34.39,8.20,-0.07,0.01,0.02,0.06,-0.36,-10.00,17.90,136.40,-31.50,0.000000,0.000000,0.00,0,0,67.58,N/A$
-0.01,35.22,8.20,0.13,0.02,0.02,0.16,-0.43,-9.95,16.90,133.90,-31.90,0.000000,0.000000,0.00,0,0,67.64,N/A$
-0.33,35.22,8.21,-0.20,0.02,0.02,0.00,0.11,-9.81,17.40,135.80,-32.20,0.000000,0.000000,0.00,0,0,67.62,N/A$
-0.21,35.21,8.21,0.02,0.00,0.02,-0.14,-0.17,-10.00,18.60,136.30,-31.70,0.000000,0.000000,0.00,0,0,67.66,N/A$
-0.13,35.21,8.21,0.23,0.00,0.01,-0.26,-0.26,-10.19,17.70,135.10,-31.20,0.000000,0.000000,0.00,0,0,67.64,N/A$
-0.20,35.21,8.20,0.03,0.00,0.02,-0.06,-0.22,-9.98,18.60,135.10,-32.40,0.000000,0.000000,0.00,0,0,67.64,N/A$
-0.38,35.21,8.21,-0.03,0.01,0.02,-0.11,-0.33,-10.00,18.30,136.00,-29.30,0.000000,0.000000,0.00,0,0,67.65,N/A$
-0.39,35.21,8.21,0.09,0.02,0.01,-0.19,-0.55,-10.35,17.50,135.10,-31.10,0.000000,0.000000,0.00,0,0,67.62,N/A$
-0.25,35.21,8.21,-0.04,0.02,0.02,-0.01,-0.05,-10.02,17.80,135.70,-32.70,0.000000,0.000000,0.00,0,0,67.66,N/A$
0.03,35.21,8.21,-0.09,0.00,0.12,-0.12,-0.98,-10.31,17.70,136.70,-30.70,0.000000,0.000000,0.00,0,0,67.68,N/A$
-0.34,35.21,8.21,0.12,0.00,0.02,-0.06,-0.57,-10.00,17.70,136.20,-28.90,0.000000,0.000000,0.00,0,0,67.66,N/A$
0.78,35.21,7.96,0.08,0.00,0.05,0.00,-0.08,-9.99,7.60,131.30,-37.10,0.000000,0.000000,0.00,0,0,67.66,N/A$
36.91,32.62,7.27,-0.34,-0.01,0.03,0.14,-0.46,-10.06,6.10,131.10,-39.40,0.000000,0.000000,0.00,0,0,67.51,N/A$
35.86,32.64,7.30,0.14,-0.00,0.02,-0.17,-0.95,-9.92,8.40,130.10,-42.10,0.000000,0.000000,0.00,0,0,67.50,N/A$
35.76,32.65,7.30,0.10,0.00,0.02,0.08,-0.38,-9.99,6.90,131.30,-42.60,0.000000,0.000000,0.00,0,0,67.50,N/A$
35.55,32.69,7.94,0.02,-0.00,0.02,-0.01,-0.18,-10.02,8.30,130.30,-40.50,0.000000,0.000000,0.00,0,0,67.51,N/A$
34.95,32.73,7.30,-0.02,0.00,0.02,0.06,-0.28,-10.03,7.00,130.80,-40.80,0.000000,0.000000,0.00,0,0,67.50,N/A$
35.35,32.71,7.29,0.02,0.00,0.03,-0.04,-0.35,-9.99,6.60,130.80,-40.50,0.000000,0.000000,0.00,0,0,67.50,N/A$
35.26,32.72,7.27,0.01,0.00,0.03,0.06,-0.29,-10.00,5.50,130.30,-38.40,0.000000,0.000000,0.00,0,0,67.50,N/A$
35.18,32.70,8.20,0.03,0.00,0.02,-0.02,-0.33,-9.98,17.00,135.90,-32.90,0.000000,0.000000,0.00,0,0,67.50,N/A$
-0.28,35.29,8.21,0.06,0.01,0.02,-0.00,-0.41,-9.96,17.20,133.80,-31.50,0.000000,0.000000,0.00,0,0,67.64,N/A$
-0.26,35.28,8.20,0.06,0.00,0.02,0.01,-0.35,-10.01,18.00,135.50,-32.50,0.000000,0.000000,0.00,0,0,67.65,N/A$
-0.17,35.27,8.21,0.05,0.00,0.02,-0.03,-0.28,-10.03,17.40,135.20,-32.00,0.000000,0.000000,0.00,0,0,67.64,N/A$
-0.30,35.27,8.20,0.03,0.00,0.02,-0.08,-0.28,-10.07,16.00,134.10,-31.50,0.000000,0.000000,0.00,0,0,67.64,N/A$
-0.22,35.27,8.20,-0.01,0.01,0.02,0.01,-0.20,-10.00,18.30,134.80,-30.70,0.000000,0.000000,0.00,0,0,67.64,N/A$
-0.27,35.27,8.21,0.02,0.00,0.02,-0.27,-0.39,-9.93,18.10,135.90,-30.70,0.000000,0.000000,0.00,0,0,67.64,N/A$
-0.26,35.26,8.21,0.10,0.00,0.01,-0.04,-0.46,-9.91,16.10,135.90,-31.20,0.000000,0.000000,0.00,0,0,67.64,N/A$
-0.03,35.27,8.21,0.05,0.00,0.01,-0.16,-0.37,-9.97,17.90,135.10,-30.30,0.000000,0.000000,0.00,0,0,67.64,N/A$
-0.19,35.26,8.21,0.07,0.00,0.02,-0.05,-0.35,-9.95,17.90,136.50,-30.10,0.000000,0.000000,0.00,0,0,67.64,N/A$
-0.26,35.27,8.22,0.08,0.00,0.01,-0.06,-0.33,-10.00,17.40,134.60,-30.30,0.000000,0.000000,0.00,0,0,67.64,N/A$
-0.24,35.27,7.95,0.03,0.00,0.02,-0.17,-0.38,-9.99,16.90,134.30,-32.10,0.000000,0.000000,0.00,0,0,67.64,N/A$
5.58,34.92,7.79,0.03,0.00,0.02,0.06,-0.35,-9.98,6.90,129.40,-38.80,0.000000,0.000000,0.00,0,0,67.62,N/A$
36.47,32.65,7.29,0.03,0.00,0.02,-0.03,-0.32,-9.93,7.70,132.00,-39.90,0.000000,0.000000,0.00,0,0,67.49,N/A$
37.05,32.62,7.30,0.04,0.00,0.02,-0.07,-0.32,-10.00,7.90,129.70,-37.20,0.000000,0.000000,0.00,0,0,67.49,N/A$
38.05,32.56,7.93,0.06,0.00,0.02,0.06,-0.33,-9.98,13.60,132.40,-36.20,0.000000,0.000000,0.00,0,0,67.48,N/A$
16.05,34.20,7.29,0.03,0.00,0.03,-0.19,-0.35,-9.99,7.20,130.20,-38.60,0.000000,0.000000,0.00,0,0,67.57,N/A$
38.80,32.51,7.28,0.03,0.00,0.03,0.04,-0.29,-10.01,7.40,131.90,-39.60,0.000000,0.000000,0.00,0,0,67.47,N/A$
38.77,32.50,7.29,0.03,0.00,0.03,-0.14,-0.31,-9.99,7.40,131.20,-42.60,0.000000,0.000000,0.00,0,0,67.47,N/A$
38.80,32.51,8.20,0.04,0.01,0.02,0.05,-0.31,-9.99,17.30,136.60,-31.40,0.000000,0.000000,0.00,0,0,67.47,N/A$
-0.36,35.35,8.21,0.04,0.00,0.02,-0.17,-0.32,-9.99,17.60,135.50,-30.30,0.000000,0.000000,0.00,0,0,67.63,N/A$
-0.63,35.34,8.20,0.05,0.00,0.02,0.04,-0.29,-9.99,17.80,135.00,-32.80,0.000000,0.000000,0.00,0,0,67.63,N/A$
-0.21,35.33,8.20,0.07,0.00,0.02,0.08,-0.39,-9.86,17.90,135.20,-31.90,0.000000,0.000000,0.00,0,0,67.63,N/A$
-0.50,35.33,8.20,0.03,0.00,0.02,-0.01,-0.34,-10.02,18.40,135.30,-30.20,0.000000,0.000000,0.00,0,0,67.63,N/A$
-0.50,35.32,8.21,0.03,0.00,0.02,-0.01,-0.31,-10.04,18.70,135.90,-31.40,0.000000,0.000000,0.00,0,0,67.63,N/A$
-0.18,35.33,8.20,0.03,0.00,0.02,-0.05,-0.31,-10.02,17.50,134.20,-33.60,0.000000,0.000000,0.00,0,0,67.64,N/A$
-0.35,35.32,8.21,0.05,0.00,0.02,-0.06,-0.29,-9.97,17.70,135.40,-32.60,0.000000,0.000000,0.00,0,0,67.64,N/A$
-0.41,35.32,8.21,0.05,0.00,0.02,-0.07,-0.34,-10.10,17.40,135.50,-31.70,0.000000,0.000000,0.00,0,0,67.63,N/A$
-0.75,35.32,8.21,0.04,0.00,0.02,0.04,-0.32,-9.99,17.70,134.80,-28.50,0.000000,0.000000,0.00,0,0,67.65,N/A$
-0.53,35.33,8.21,0.05,0.00,0.02,-0.06,-0.32,-10.00,19.10,135.50,-30.60,0.000000,0.000000,0.00,0,0,67.65,N/A$
-0.57,35.33,8.22,0.05,0.00,0.02,0.02,-0.29,-10.01,17.10,134.50,-31.50,0.000000,0.000000,0.00,0,0,67.63,N/A$
-0.24,35.33,7.95,0.03,0.00,0.03,0.00,-0.25,-10.03,7.30,128.80,-38.60,0.000000,0.000000,0.00,0,0,67.61,N/A$
-0.52,35.33,7.27,0.04,0.00,0.03,0.03,-0.27,-9.98,8.00,130.80,-38.40,0.000000,0.000000,0.00,0,0,67.63,N/A$
39.62,32.47,7.28,0.06,-0.00,0.03,0.03,-0.34,-10.00,7.70,131.50,-43.50,0.000000,0.000000,0.00,0,0,67.51,N/A$
39.93,32.46,7.28,-0.02,0.01,0.05,-0.41,-0.70,-10.56,7.70,131.90,-39.00,0.000000,0.000000,0.00,0,0,67.39,N/A$
40.04,32.48,7.94,0.02,0.00,0.03,-0.02,-0.07,-10.38,8.30,130.10,-38.00,0.000000,0.000000,0.00,0,0,67.38,N/A$
39.14,32.52,7.30,-0.04,0.00,0.04,0.00,-0.04,-10.03,7.10,130.40,-36.50,0.000000,0.000000,0.00,0,0,67.42,N/A$
38.94,32.58,7.28,-0.03,0.00,0.03,-0.00,-0.20,-10.00,8.20,130.80,-40.50,0.000000,0.000000,0.00,0,0,67.40,N/A$
38.94,32.61,7.28,0.00,0.00,0.02,-0.11,-0.24,-10.09,8.40,131.10,-39.20,0.000000,0.000000,0.00,0,0,67.46,N/A$
31.55,33.06,8.20,0.06,0.00,0.02,-0.08,-0.23,-10.03,17.70,135.50,-31.30,0.000000,0.000000,0.00,0,0,67.47,N/A$
-0.60,35.40,8.20,0.06,0.00,0.02,-0.10,-0.26,-10.06,18.30,135.70,-32.10,0.000000,0.000000,0.00,0,0,67.59,N/A$
-1.08,35.39,8.20,0.07,0.00,0.01,-0.08,-0.33,-10.02,17.80,135.40,-30.90,0.000000,0.000000,0.00,0,0,67.59,N/A$
-0.91,35.38,8.20,0.15,0.00,0.01,-0.19,-0.66,-10.25,18.00,135.10,-31.60,0.000000,0.000000,0.00,0,0,67.60,N/A$
-0.85,35.38,8.20,-0.34,0.01,0.03,-0.16,-0.44,-10.16,18.80,135.40,-30.70,0.000000,0.000000,0.00,0,0,67.60,N/A$
-0.78,35.38,8.21,0.18,-0.00,0.01,-0.00,-1.42,-9.25,16.40,136.30,-32.40,12.607982,100.940620,-22.60,8,0,67.60,N/A$
-0.51,35.38,8.21,0.49,0.01,0.00,-0.09,-0.49,-10.09,17.40,134.90,-30.80,12.607982,100.940620,-22.60,8,0,67.60,N/A$
-0.62,35.38,8.20,0.05,0.00,0.02,0.14,0.18,-10.22,17.30,135.60,-31.70,12.607982,100.940620,-22.60,8,0,67.60,N/A$
-0.57,35.38,8.21,-0.03,0.00,0.02,-0.04,-0.19,-10.03,17.70,135.30,-30.50,12.607982,100.940620,-22.60,8,0,67.60,N/A$
-0.51,35.38,8.21,0.05,0.00,0.02,0.10,-0.51,-9.89,18.90,135.70,-30.80,12.607982,100.940620,-22.60,8,0,67.60,N/A$
-0.96,35.38,8.20,0.11,0.01,0.02,-0.02,-0.59,-9.94,17.20,135.90,-30.70,12.607982,100.940620,-22.60,8,0,67.59,N/A$
-0.84,35.39,7.94,0.01,0.00,0.02,-0.26,-0.09,-10.72,13.30,132.80,-35.20,12.607982,100.940620,-22.60,8,0,67.61,N/A$
28.20,33.35,7.28,0.00,-0.00,0.03,0.08,-0.22,-9.93,7.40,130.90,-37.70,12.607982,100.940620,-22.60,8,0,67.48,N/A$
35.27,32.84,7.26,0.02,0.00,0.02,-0.09,-0.33,-10.02,6.50,129.90,-37.10,12.607982,100.940620,-22.60,8,0,67.45,N/A$
35.57,32.85,7.28,0.04,0.00,0.02,-0.26,-0.43,-10.41,8.60,129.70,-36.80,12.607982,100.940620,-22.60,8,0,67.45,N/A$
35.45,32.88,7.95,0.08,0.01,0.02,0.15,-0.27,-9.80,9.50,130.10,-38.90,12.607982,100.940620,-22.60,8,0,67.44,N/A$
27.04,33.52,7.30,0.06,-0.00,0.03,-0.04,-0.35,-10.03,8.90,130.80,-41.20,12.607982,100.940620,-22.60,8,0,67.47,N/A$
35.10,32.91,7.31,0.07,-0.00,0.02,0.02,-0.41,-10.01,6.70,133.00,-42.50,12.607982,100.940620,-22.60,8,0,67.44,N/A$
34.66,32.94,7.28,0.05,-0.00,0.02,-0.02,-0.37,-9.91,7.70,131.00,-39.20,12.607982,100.940620,-22.60,8,0,67.44,N/A$
35.07,32.93,8.20,0.09,0.00,0.02,0.14,-0.34,-10.01,17.40,135.20,-30.20,12.607982,100.940620,-22.60,8,0,67.43,N/A$
-0.18,35.46,8.20,0.06,0.00,0.02,-0.11,-0.32,-9.99,17.80,135.40,-31.60,12.607982,100.940620,-22.60,8,0,67.57,N/A$
-0.44,35.45,8.21,0.05,0.00,0.02,0.16,-0.08,-9.62,16.50,135.50,-31.40,12.607983,100.940636,-22.50,9,0,67.58,N/A$
-0.45,35.45,8.20,0.04,0.01,0.02,-0.16,-0.17,-10.13,18.90,135.40,-32.10,12.607983,100.940636,-22.50,9,0,67.58,N/A$
-0.24,35.44,8.20,0.02,0.01,0.02,0.04,-0.19,-9.80,16.20,135.60,-32.10,12.607983,100.940636,-22.50,9,0,67.57,N/A$
